time,seconds_elapsed,z,y,x
1772883327731732200,0.240732177734375,0.15260028839111328,0.17339444160461426,0.1479702591896057
1772883327748351000,0.25735107421875,0.4525947570800781,0.3280353546142578,0.2882011830806732
1772883327764948000,0.273947998046875,0.7430849075317383,0.3982357978820801,0.3462151288986206
1772883327781560300,0.290560302734375,0.892486572265625,0.37783265113830566,0.29926827549934387
1772883327798169600,0.307169677734375,0.8842964172363281,0.34970712661743164,0.2236405611038208
1772883327814771700,0.323771728515625,0.6671104431152344,0.3003385066986084,0.1258329153060913
1772883327831360300,0.3403603515625,0.5498437881469727,0.26799511909484863,-0.013405144214630127
1772883327847981000,0.35698095703125,0.83258056640625,0.20535612106323242,-0.07416915893554688
1772883327864559000,0.37355908203125,1.2691612243652344,0.13974285125732422,-0.12870514392852783
1772883327881176300,0.39017626953125,1.7324552536010742,0.012135028839111328,-0.27251285314559937
1772883327897792300,0.406792236328125,1.7876176834106445,0.06675529479980469,-0.5013260841369629
1772883327914404900,0.42340478515625,1.4324312210083008,0.14921903610229492,-0.3728136420249939
1772883327931034600,0.44003466796875,1.351654052734375,0.17802715301513672,0.0894930362701416
1772883327947603200,0.456603271484375,1.7736797332763672,-0.015916824340820312,0.6307982206344604
1772883327964211500,0.47321142578125,2.2883548736572266,-0.5412626266479492,1.0870704650878906
1772883327980825000,0.4898251953125,2.442498207092285,-1.0610861778259277,1.279655933380127
1772883327997410600,0.50641064453125,2.3068456649780273,-1.5096931457519531,1.1776084899902344
1772883328014032600,0.52303271484375,1.961441993713379,-1.8960208892822266,0.8455550074577332
1772883328030626600,0.53962646484375,1.2239503860473633,-2.132249355316162,0.49384087324142456
1772883328047244000,0.556244140625,0.378387451171875,-2.1342930793762207,0.30813705921173096
1772883328063846700,0.5728466796875,-0.10889148712158203,-2.010775089263916,0.3278263807296753
1772883328080456400,0.58945654296875,-0.31560802459716797,-1.810642957687378,0.583753228187561
1772883328097065200,0.606065185546875,-0.4029502868652344,-1.6307663917541504,0.8735703825950623
1772883328113674000,0.622674072265625,-0.38315773010253906,-1.449683666229248,1.173850178718567
1772883328130245000,0.6392451171875,-0.3455009460449219,-1.4492034912109375,1.362055778503418
1772883328146866000,0.655865966796875,-0.20574474334716797,-1.5090422630310059,1.2738659381866455
1772883328163470300,0.67247021484375,0.13965892791748047,-1.5814261436462402,1.1590282917022705
1772883328180076800,0.689076904296875,0.2762279510498047,-1.6507596969604492,1.0415613651275635
1772883328196679200,0.70567919921875,0.38593292236328125,-1.5998203754425049,1.0271064043045044
1772883328213283300,0.722283447265625,0.5558376312255859,-1.5367100238800049,1.1832319498062134
1772883328229893400,0.738893310546875,0.3516254425048828,-1.5106916427612305,1.1870988607406616
1772883328246507500,0.755507568359375,-0.07441997528076172,-1.4739599227905273,0.9536242485046387
1772883328263109600,0.772109619140625,-0.5391082763671875,-1.4226374626159668,0.5842136144638062
1772883328279720400,0.788720458984375,-1.0197420120239258,-1.377791166305542,0.20581455528736115
1772883328296318700,0.805318603515625,-1.211716651916504,-1.291290283203125,-0.052403222769498825
1772883328312933400,0.821933349609375,-1.1272907257080078,-1.221656322479248,-0.09669340401887894
1772883328329518600,0.8385185546875,-0.9345779418945312,-1.0874028205871582,0.024964720010757446
1772883328346156500,0.855156494140625,-0.8365292549133301,-0.9351563453674316,0.1464756727218628
1772883328362760400,0.871760498046875,-0.7718868255615234,-0.7910346984863281,0.1258249282836914
1772883328379350800,0.888350830078125,-0.694636344909668,-0.6594414710998535,0.06828929483890533
1772883328395950600,0.90495068359375,-0.6308078765869141,-0.5160713195800781,0.08098962903022766
1772883328412565200,0.921565185546875,-0.5103311538696289,-0.3990926742553711,0.07220026850700378
1772883328429184000,0.93818408203125,-0.26538562774658203,-0.3385138511657715,0.010211735963821411
1772883328445758700,0.9547587890625,-0.19339466094970703,-0.31438684463500977,-0.04015885293483734
1772883328462361900,0.97136181640625,-0.1585102081298828,-0.2334766387939453,0.03359028697013855
1772883328478998800,0.987998779296875,-0.08750724792480469,-0.15598678588867188,0.1634875237941742
1772883328495586600,1.004586669921875,0.04828929901123047,-0.09998226165771484,0.2570088505744934
1772883328512176400,1.02117626953125,0.2535238265991211,-0.061597347259521484,0.30759623646736145
1772883328528782600,1.037782470703125,0.42903995513916016,-0.05604076385498047,0.29074716567993164
1772883328545387300,1.05438720703125,0.5409946441650391,-0.06274032592773438,0.24309396743774414
1772883328562010000,1.071010009765625,0.5123186111450195,-0.011501789093017578,0.2286568284034729
1772883328578611500,1.087611572265625,0.4087982177734375,0.06125307083129883,0.22886765003204346
1772883328595231700,1.104231689453125,0.5254793167114258,0.12197256088256836,0.3384550213813782
1772883328611814700,1.120814697265625,0.6274518966674805,0.06704282760620117,0.4299817383289337
1772883328628413700,1.13741357421875,0.5759944915771484,-0.029779911041259766,0.41570085287094116
1772883328645005600,1.154005615234375,0.5223188400268555,0.05804777145385742,0.23882821202278137
1772883328661610000,1.17060986328125,0.7604274749755859,0.03789043426513672,0.23028752207756042
1772883328678233000,1.187233154296875,1.3759479522705078,-0.029104232788085938,0.09214207530021667
1772883328694840000,1.203840087890625,1.7843618392944336,-0.09489011764526367,-0.08816438913345337
1772883328711442000,1.22044189453125,1.6880245208740234,-0.12065744400024414,-0.09755191206932068
1772883328728069000,1.237069091796875,1.3232479095458984,0.0571446418762207,0.06176599860191345
1772883328744664600,1.25366455078125,1.0913524627685547,0.22197628021240234,0.5021038055419922
1772883328761254400,1.27025439453125,1.4557209014892578,0.1372084617614746,0.950646162033081
1772883328777877200,1.286877197265625,1.9250879287719727,-0.17966985702514648,1.127958059310913
1772883328794476800,1.303476806640625,2.179197311401367,-0.6174726486206055,1.0996229648590088
1772883328811092000,1.320092041015625,2.350674629211426,-1.033571720123291,0.9386970400810242
1772883328827678500,1.336678466796875,2.369635581970215,-1.4145700931549072,0.6554642915725708
1772883328844323000,1.353322998046875,2.227047920227051,-1.8056397438049316,0.2914282977581024
1772883328860887600,1.369887451171875,1.7196226119995117,-2.035623550415039,0.032526254653930664
1772883328877523500,1.3865234375,1.0414562225341797,-2.044966459274292,-0.09022046625614166
1772883328894112500,1.403112548828125,0.3483285903930664,-1.991880178451538,-0.04462696611881256
1772883328910720300,1.41972021484375,-0.0706491470336914,-1.8447809219360352,0.01998637616634369
1772883328927323400,1.436323486328125,-0.12186241149902344,-1.7860298156738281,0.15253877639770508
1772883328943928300,1.45292822265625,0.08991718292236328,-1.8049075603485107,0.2403903305530548
1772883328960531200,1.46953125,0.20334720611572266,-1.806368350982666,0.24735873937606812
1772883328977112300,1.4861123046875,0.18060779571533203,-1.7273101806640625,0.1715124100446701
1772883328993727000,1.50272705078125,0.3455686569213867,-1.6634182929992676,0.10975295305252075
1772883329010352600,1.5193525390625,0.623988151550293,-1.7092678546905518,0.07306717336177826
1772883329026951000,1.535950927734375,0.7654485702514648,-1.7283244132995605,0.0561140775680542
1772883329043564000,1.55256396484375,0.7038345336914062,-1.7107417583465576,0.12546004354953766
1772883329060154400,1.569154296875,0.4828071594238281,-1.7422809600830078,0.24404525756835938
1772883329076785000,1.585784912109375,0.2291421890258789,-1.7344300746917725,0.2615875005722046
1772883329093361000,1.60236083984375,0.038573265075683594,-1.7263765335083008,0.3053213655948639
1772883329109966800,1.618966796875,0.10698509216308594,-1.783545970916748,0.13249599933624268
1772883329126571800,1.63557177734375,0.3539724349975586,-1.8929994106292725,-0.07067978382110596
1772883329143193900,1.65219384765625,0.46142005920410156,-1.9589970111846924,-0.1319284439086914
1772883329159785500,1.668785400390625,0.17139339447021484,-1.961289405822754,-0.07446831464767456
1772883329176379400,1.68537939453125,-0.44883060455322266,-1.7820820808410645,0.10060898959636688
1772883329192984000,1.701984130859375,-0.9623489379882812,-1.5865192413330078,0.1660470962524414
1772883329209600500,1.7186005859375,-1.2073326110839844,-1.4769468307495117,-0.033939212560653687
1772883329226246700,1.73524658203125,-1.0663509368896484,-1.3813505172729492,-0.3122348189353943
1772883329242827000,1.751826904296875,-0.9286470413208008,-1.2613039016723633,-0.44807833433151245
1772883329259414300,1.768414306640625,-0.9499526023864746,-1.1182918548583984,-0.40467095375061035
1772883329276042500,1.78504248046875,-0.9881343841552734,-1.0209288597106934,-0.3536889851093292
1772883329292660700,1.80166064453125,-0.9513359069824219,-0.9338569641113281,-0.2162044495344162
1772883329309241000,1.818240966796875,-0.7785434722900391,-0.7773528099060059,-0.09503008425235748
1772883329325818600,1.834818603515625,-0.49187469482421875,-0.6461548805236816,-0.033151522278785706
1772883329342460200,1.851460205078125,-0.10486602783203125,-0.5763034820556641,-0.047023043036460876
1772883329359053600,1.868053466796875,0.09758377075195312,-0.49826717376708984,0.007668614387512207
1772883329375645200,1.884645263671875,0.011305809020996094,-0.4059305191040039,-0.010122328996658325
1772883329392272400,1.9012724609375,-0.021327972412109375,-0.32343482971191406,-0.004748702049255371
1772883329408880000,1.917880126953125,0.15202999114990234,-0.2937016487121582,0.16595280170440674
1772883329425462500,1.934462646484375,0.5790748596191406,-0.2534027099609375,0.37969034910202026
1772883329442093600,1.951093505859375,0.9926929473876953,-0.32022619247436523,0.5120971202850342
1772883329458680300,1.967680419921875,1.1873960494995117,-0.38498353958129883,0.4742656946182251
1772883329475297300,1.98429736328125,1.2190637588500977,-0.2712240219116211,0.3505783677101135
1772883329491899400,2.0008994140625,1.0152406692504883,-0.2874894142150879,0.38638222217559814
1772883329508515600,2.017515625,0.8653411865234375,-0.19324588775634766,0.24451911449432373
1772883329525095000,2.034094970703125,0.814361572265625,0.00881338119506836,0.09460318088531494
1772883329541725200,2.05072509765625,0.7610006332397461,0.18244314193725586,0.09766492247581482
1772883329558310700,2.067310546875,0.6182584762573242,0.2469935417175293,0.23914599418640137
1772883329574933000,2.08393310546875,0.47999095916748047,0.17878484725952148,0.5167386531829834
1772883329591539000,2.1005390625,0.5597734451293945,-0.031957149505615234,0.8757562637329102
1772883329608124200,2.117124267578125,0.9367446899414062,-0.43406200408935547,1.1096659898757935
1772883329624727600,2.1337275390625,1.3169746398925781,-1.0199408531188965,1.1148947477340698
1772883329641344000,2.150343994140625,1.3663549423217773,-1.5014030933380127,0.9305429458618164
1772883329657931800,2.166931884765625,1.072199821472168,-1.6884417533874512,0.7192416787147522
1772883329674549000,2.183549072265625,0.571528434753418,-1.681994915008545,0.658450722694397
1772883329691158300,2.200158203125,0.23556232452392578,-1.4993352890014648,0.6574914455413818
1772883329707761000,2.216760986328125,0.27684593200683594,-1.2430665493011475,0.6951689720153809
1772883329724376600,2.23337646484375,0.37912845611572266,-1.1294841766357422,0.7732437252998352
1772883329740989400,2.249989501953125,0.35489749908447266,-1.0635480880737305,0.9378170967102051
1772883329757604900,2.26660498046875,0.3063516616821289,-1.0158500671386719,1.1283726692199707
1772883329774182700,2.2831826171875,0.33242034912109375,-0.9696164131164551,1.252062201499939
1772883329790804200,2.29980419921875,0.5010032653808594,-0.9471659660339355,1.2303646802902222
1772883329807401000,2.31640087890625,0.6271085739135742,-1.0101003646850586,1.140169620513916
1772883329824010200,2.33301025390625,0.6631937026977539,-1.1594667434692383,0.9246358871459961
1772883329840615200,2.349615234375,0.6214580535888672,-1.3337712287902832,0.6403630971908569
1772883329857205800,2.366205810546875,0.41812801361083984,-1.408719539642334,0.396592378616333
1772883329873825300,2.3828251953125,0.15307331085205078,-1.4424076080322266,0.18522429466247559
1772883329890432800,2.399432861328125,-0.16301536560058594,-1.4157218933105469,0.005962997674942017
1772883329907032600,2.416032470703125,-0.5249967575073242,-1.291140079498291,-0.07911677658557892
1772883329923641000,2.43264111328125,-0.8401393890380859,-1.1037554740905762,-0.08304290473461151
1772883329940251600,2.449251708984375,-1.0359477996826172,-0.902036190032959,0.12996619939804077
1772883329956862700,2.46586279296875,-1.078141212463379,-0.7090139389038086,0.35577571392059326
1772883329973441800,2.48244189453125,-1.0476160049438477,-0.5568132400512695,0.5659876465797424
1772883329990061800,2.499061767578125,-0.8129606246948242,-0.4550437927246094,0.6943795680999756
1772883330006670800,2.5156708984375,-0.4371814727783203,-0.4492168426513672,0.6990890502929688
1772883330023274000,2.53227392578125,-0.18927478790283203,-0.4562382698059082,0.6211879253387451
1772883330039879000,2.54887890625,-0.16808795928955078,-0.44443464279174805,0.4528321623802185
1772883330056471600,2.565471435546875,-0.3329782485961914,-0.37776613235473633,0.30219587683677673
1772883330073088800,2.5820888671875,-0.4986734390258789,-0.2571578025817871,0.23843923211097717
1772883330089680000,2.598679931640625,-0.3440847396850586,-0.1575770378112793,0.2828547954559326
1772883330106287900,2.615287841796875,0.040909767150878906,-0.09517860412597656,0.37036335468292236
1772883330122892500,2.631892578125,0.3414144515991211,-0.05479001998901367,0.4280174672603607
1772883330139501600,2.64850146484375,0.3693809509277344,0.04849958419799805,0.5304446816444397
1772883330156092200,2.665092041015625,0.2506380081176758,0.20669794082641602,0.6689128279685974
1772883330172709600,2.681709716796875,0.26198768615722656,0.30831384658813477,0.7391362190246582
1772883330189313300,2.698313232421875,0.4155874252319336,0.38620901107788086,0.7162742614746094
1772883330205921800,2.714921875,0.5207548141479492,0.3982658386230469,0.6961013078689575
1772883330222539800,2.731539794921875,0.5920352935791016,0.45399999618530273,0.666325569152832
1772883330239151900,2.74815185546875,0.7030010223388672,0.5162200927734375,0.5548421144485474
1772883330255746800,2.764746826171875,0.8987112045288086,0.5021977424621582,0.3808155655860901
1772883330272337700,2.781337646484375,1.1323375701904297,0.41381072998046875,0.14044973254203796
1772883330288999000,2.7979990234375,1.2133369445800781,0.4029808044433594,0.0417463481426239
1772883330305564000,2.81456396484375,1.2155847549438477,0.34114646911621094,0.0958642065525055
1772883330322173200,2.831173095703125,1.5616931915283203,0.1362147331237793,0.24563267827033997
1772883330338774800,2.84777490234375,2.2324323654174805,-0.19307613372802734,0.4416247308254242
1772883330355379000,2.86437890625,2.5918197631835938,-0.6124553680419922,0.6381310224533081
1772883330371972000,2.88097216796875,2.434774398803711,-0.8930332660675049,0.8092076778411865
1772883330388589000,2.897589111328125,1.9579992294311523,-1.094240665435791,0.8283153176307678
1772883330405180400,2.914180419921875,1.405461311340332,-1.31109619140625,0.7672209739685059
1772883330421802200,2.93080224609375,1.0665349960327148,-1.5133767127990723,0.6206662654876709
1772883330438406000,2.947406005859375,0.8133811950683594,-1.737616777420044,0.5086572170257568
1772883330455015700,2.964015625,0.5082902908325195,-1.9531645774841309,0.4035203158855438
1772883330471634000,2.980634033203125,0.10385799407958984,-2.058185338973999,0.2418731153011322
1772883330488235000,2.997235107421875,-0.39129638671875,-2.0752925872802734,0.0520743727684021
1772883330504830500,3.01383056640625,-0.8916635513305664,-2.0164198875427246,-0.06418614089488983
1772883330521424100,3.030424072265625,-1.0585722923278809,-1.8825726509094238,-0.11343181133270264
1772883330538045000,3.047044921875,-0.7943801879882812,-1.8449859619140625,-0.04663580656051636
1772883330554642200,3.06364208984375,-0.1894063949584961,-1.859595537185669,0.06626631319522858
1772883330571233800,3.08023388671875,0.31007862091064453,-1.7985057830810547,0.13155201077461243
1772883330587839500,3.096839599609375,0.4383058547973633,-1.7006802558898926,0.08771976828575134
1772883330604446200,3.1134462890625,0.4362621307373047,-1.5497915744781494,0.0003812587819993496
1772883330621052400,3.130052490234375,0.48207569122314453,-1.4629089832305908,-0.014809252694249153
1772883330637657900,3.146657958984375,0.7023801803588867,-1.4453048706054688,0.07143194228410721
1772883330654261200,3.16326123046875,1.1822404861450195,-1.4570269584655762,0.22425372898578644
1772883330670869800,3.179869873046875,1.754277229309082,-1.5081148147583008,0.387355238199234
1772883330687474200,3.19647412109375,2.0526647567749023,-1.5140209197998047,0.49751293659210205
1772883330704090000,3.213090087890625,1.808974266052246,-1.5171189308166504,0.47367632389068604
1772883330720700000,3.229699951171875,1.093928337097168,-1.4311857223510742,0.3363691568374634
1772883330737303800,3.2463037109375,0.2852945327758789,-1.3379368782043457,0.19984450936317444
1772883330753906200,3.26290625,-0.3553800582885742,-1.1792261600494385,0.18248258531093597
1772883330770498300,3.279498291015625,-0.5745296478271484,-1.0489494800567627,0.17708708345890045
1772883330787119600,3.29611962890625,-0.5965642929077148,-1.0270342826843262,0.18557637929916382
1772883330803721000,3.312720947265625,-0.6452999114990234,-1.0144786834716797,0.11451897025108337
1772883330820331000,3.3293310546875,-0.7139625549316406,-0.948908805847168,0.05727654695510864
1772883330836919000,3.3459189453125,-0.7402830123901367,-0.8650336265563965,0.002446979284286499
1772883330853524200,3.362524169921875,-0.7162265777587891,-0.7508230209350586,-0.028570368885993958
1772883330870137600,3.3791376953125,-0.5456771850585938,-0.6311898231506348,-0.019358158111572266
1772883330886738700,3.39573876953125,-0.3018159866333008,-0.541496753692627,0.04592795670032501
1772883330903339800,3.41233984375,-0.0691995620727539,-0.47413063049316406,0.07363083958625793
1772883330919962000,3.428962158203125,0.14938926696777344,-0.42694520950317383,0.11220431327819824
1772883330936563200,3.445563232421875,0.32041263580322266,-0.36029529571533203,0.23419201374053955
1772883330953179400,3.462179443359375,0.4525327682495117,-0.24170827865600586,0.39638084173202515
1772883330969778400,3.4787783203125,0.4250059127807617,-0.15212440490722656,0.4019869565963745
1772883330986380000,3.495380126953125,0.2674837112426758,-0.11997556686401367,0.31009912490844727
1772883331002977500,3.5119775390625,0.123809814453125,-0.07979965209960938,0.24985744059085846
1772883331019593700,3.52859375,0.135711669921875,-0.04991436004638672,0.2518635094165802
1772883331036195300,3.5451953125,0.21550846099853516,-0.0837702751159668,0.2845868468284607
1772883331052808200,3.56180810546875,0.2940053939819336,-0.09602499008178711,0.2942888140678406
1772883331069393400,3.578393310546875,0.3214273452758789,-0.17019367218017578,0.2582683563232422
1772883331086001400,3.59500146484375,0.41437244415283203,-0.14587974548339844,0.12654049694538116
1772883331102593500,3.611593505859375,0.4913644790649414,-0.028408050537109375,0.02693970501422882
1772883331119211800,3.628211669921875,0.6535263061523438,0.027425765991210938,0.04189509153366089
1772883331135815000,3.64481494140625,1.0880842208862305,0.0922236442565918,-0.047700196504592896
1772883331152426000,3.661426025390625,1.2021799087524414,0.1365666389465332,-0.11482560634613037
1772883331169028000,3.678028076171875,1.0079431533813477,0.1500844955444336,-0.05588659644126892
1772883331185633000,3.694633056640625,0.9737749099731445,0.16466569900512695,0.0689254105091095
1772883331202253000,3.711253173828125,1.2644014358520508,0.01977062225341797,0.2888111174106598
1772883331218858200,3.727858154296875,1.6809263229370117,-0.3473930358886719,0.5506085157394409
1772883331235440400,3.7444404296875,1.9216299057006836,-0.8360729217529297,0.6925979256629944
1772883331252074800,3.76107470703125,1.8030176162719727,-1.3192172050476074,0.6864686012268066
1772883331268674600,3.777674560546875,1.4117488861083984,-1.7126107215881348,0.5686283111572266
1772883331285278700,3.79427880859375,0.9018735885620117,-1.906996250152588,0.4371684491634369
1772883331301851600,3.8108515625,0.4071798324584961,-1.9275765419006348,0.3187507688999176
1772883331318489300,3.8274892578125,-0.013017654418945312,-1.8398432731628418,0.23589375615119934
1772883331335093000,3.844093017578125,-0.2702608108520508,-1.6874985694885254,0.28950831294059753
1772883331351703300,3.860703369140625,-0.3038311004638672,-1.4940762519836426,0.4576781094074249
1772883331368306000,3.877305908203125,-0.12732219696044922,-1.3360531330108643,0.678229808807373
1772883331384910800,3.893910888671875,0.06919002532958984,-1.2139058113098145,0.9809426069259644
1772883331401516500,3.9105166015625,0.07425975799560547,-1.1300477981567383,1.311028003692627
1772883331418110200,3.927110107421875,0.1520233154296875,-1.0637168884277344,1.4831609725952148
1772883331434727200,3.94372705078125,0.4841432571411133,-1.094770908355713,1.3959109783172607
1772883331451331600,3.96033154296875,0.9628810882568359,-1.281813621520996,1.1652404069900513
1772883331467938300,3.976938232421875,1.3858528137207031,-1.4872722625732422,0.9612184166908264
1772883331484543200,3.993543212890625,1.5535602569580078,-1.6254959106445312,0.7306758165359497
1772883331501148200,4.010148193359375,1.2067584991455078,-1.6380105018615723,0.4871833622455597
1772883331517740500,4.026740478515625,0.5761489868164062,-1.6064934730529785,0.22477193176746368
1772883331534359300,4.043359375,-0.040981292724609375,-1.4699409008026123,0.03289242833852768
1772883331550938000,4.059938232421875,-0.5416164398193359,-1.3225431442260742,-0.02592400461435318
1772883331567549700,4.0765498046875,-0.9345097541809082,-1.1732020378112793,-0.04328437149524689
1772883331584161300,4.093161376953125,-1.1694893836975098,-1.0213079452514648,0.009877700358629227
1772883331600767000,4.10976708984375,-1.18511962890625,-0.8589043617248535,0.059917621314525604
1772883331617363000,4.126363037109375,-1.061899185180664,-0.7006077766418457,0.1480681449174881
1772883331633980700,4.142980712890625,-0.8801937103271484,-0.5843806266784668,0.1686532199382782
1772883331650582500,4.15958251953125,-0.7732715606689453,-0.49404239654541016,0.11657485365867615
1772883331667188500,4.1761884765625,-0.7089643478393555,-0.43175697326660156,0.07046474516391754
1772883331683793400,4.19279345703125,-0.5505499839782715,-0.3504791259765625,0.1289938986301422
1772883331700415700,4.209415771484375,-0.28288745880126953,-0.26825857162475586,0.20345255732536316
1772883331717000700,4.226000732421875,-0.1261310577392578,-0.2494673728942871,0.12320192158222198
1772883331733623300,4.242623291015625,-0.1819934844970703,-0.2781848907470703,-0.057652026414871216
1772883331750228700,4.259228759765625,-0.2203359603881836,-0.2942647933959961,-0.17353469133377075
1772883331766834200,4.275834228515625,-0.11669349670410156,-0.2629547119140625,-0.09074653685092926
1772883331783439000,4.292439208984375,-0.057150840759277344,-0.1885666847229004,0.0025568008422851562
1772883331800066000,4.309066162109375,-0.02193737030029297,-0.18335962295532227,-0.04387733340263367
1772883331816633300,4.32563330078125,-0.06124401092529297,-0.1308131217956543,-0.11351427435874939
1772883331833255700,4.342255615234375,-0.12664318084716797,-0.060051918029785156,-0.109129399061203
1772883331849856000,4.35885595703125,-0.15035343170166016,0.06758260726928711,-0.12103316187858582
1772883331866470700,4.375470703125,-0.1815042495727539,0.1528310775756836,-0.16414757072925568
1772883331883071700,4.39207177734375,-0.13104534149169922,0.19776153564453125,-0.26475632190704346
1772883331899676400,4.408676513671875,-0.009890556335449219,0.11817121505737305,-0.35454708337783813
1772883331916281900,4.42528173828125,0.1470041275024414,0.011889934539794922,-0.4371069669723511
1772883331932882700,4.441882568359375,0.1906137466430664,-0.030279159545898438,-0.3928959369659424
1772883331949492500,4.458492431640625,0.3183860778808594,0.12417125701904297,-0.4615873396396637
1772883331966105300,4.475105224609375,0.5280542373657227,0.10034751892089844,-0.5611457824707031
1772883331982696400,4.491696533203125,0.8265275955200195,0.04810333251953125,-0.544222354888916
1772883331999309300,4.508309326171875,0.9842567443847656,0.1640458106994629,-0.4648161828517914
1772883332015902000,4.52490185546875,1.0188941955566406,0.36101484298706055,-0.22474198043346405
1772883332032502800,4.541502685546875,1.098714828491211,0.5895581245422363,0.04023823142051697
1772883332049107700,4.558107666015625,1.3878374099731445,0.7500829696655273,0.3936442732810974
1772883332065700400,4.574700439453125,2.056089401245117,0.5647726058959961,0.8548638820648193
1772883332082325200,4.5913251953125,2.865565299987793,0.11846303939819336,1.270162582397461
1772883332098927000,4.607927001953125,3.375215530395508,-0.46920347213745117,1.5439196825027466
1772883332115532000,4.624531982421875,3.3097572326660156,-1.011791706085205,1.3932793140411377
1772883332132138000,4.641137939453125,2.458712577819824,-1.3945751190185547,0.9717562198638916
1772883332148727000,4.65772705078125,1.225290298461914,-1.5629119873046875,0.45396608114242554
1772883332165345300,4.67434521484375,0.22331809997558594,-1.6242403984069824,0.10346752405166626
1772883332181960200,4.690960205078125,-0.29872608184814453,-1.6198158264160156,-0.0958344042301178
1772883332198573300,4.7075732421875,-0.40635204315185547,-1.6424047946929932,-0.17156442999839783
1772883332215163000,4.724162841796875,-0.38977527618408203,-1.6942906379699707,-0.12888203561306
1772883332231767300,4.740767333984375,-0.3766908645629883,-1.7594091892242432,-0.10627052932977676
1772883332248388400,4.757388427734375,-0.34889984130859375,-1.7530994415283203,-0.10977133363485336
1772883332264990700,4.77399072265625,-0.29175376892089844,-1.7253928184509277,-0.1004600077867508
1772883332281604000,4.79060400390625,-0.10942363739013672,-1.685455322265625,-0.09917112439870834
1772883332298205000,4.807204833984375,0.11385822296142578,-1.636490821838379,-0.11208958178758621
1772883332314794500,4.82379443359375,0.4049720764160156,-1.6292014122009277,-0.06676249951124191
1772883332331395300,4.840395263671875,0.8250904083251953,-1.6705896854400635,-0.04441139101982117
1772883332348007200,4.857007080078125,1.0529041290283203,-1.7041246891021729,0.00012823939323425293
1772883332364614000,4.87361376953125,1.1876306533813477,-1.6722097396850586,0.07447132468223572
1772883332381216800,4.890216796875,1.2361516952514648,-1.590646505355835,0.14575010538101196
1772883332397823700,4.90682373046875,1.0353212356567383,-1.4723272323608398,0.09918954968452454
1772883332414428700,4.9234287109375,0.64215087890625,-1.3516783714294434,0.0855661928653717
1772883332431071700,4.94007177734375,0.2589902877807617,-1.2174973487854004,0.14898112416267395
1772883332447651800,4.95665185546875,-0.021653175354003906,-1.119009017944336,0.2465771734714508
1772883332464236000,4.973236083984375,-0.08574199676513672,-1.1243524551391602,0.16533970832824707
1772883332480867300,4.989867431640625,-0.1373453140258789,-1.2205438613891602,-0.03797030448913574
1772883332497469700,5.0064697265625,-0.2902069091796875,-1.264158010482788,-0.164993017911911
1772883332514057700,5.0230576171875,-0.46289825439453125,-1.1762027740478516,-0.20162716507911682
1772883332530674200,5.039674072265625,-0.6196908950805664,-1.0461921691894531,-0.18837043642997742
1772883332547285200,5.05628515625,-0.7495384216308594,-0.9164543151855469,-0.15530607104301453
1772883332563867600,5.07286767578125,-0.818580150604248,-0.7909460067749023,-0.16825854778289795
1772883332580499700,5.089499755859375,-0.7741870880126953,-0.689730167388916,-0.131113201379776
1772883332597101800,5.106101806640625,-0.5796794891357422,-0.627194881439209,-0.08036810159683228
1772883332613716500,5.122716552734375,-0.16189861297607422,-0.6157994270324707,-0.03187403082847595
1772883332630322700,5.13932275390625,0.21042251586914062,-0.5794434547424316,0.009648501873016357
1772883332646917000,5.155917236328125,0.4204225540161133,-0.4638042449951172,0.06620928645133972
1772883332663530500,5.172530517578125,0.4874553680419922,-0.32907962799072266,0.14550459384918213
1772883332680121000,5.18912109375,0.5246257781982422,-0.19927501678466797,0.268282413482666
1772883332696734000,5.20573388671875,0.5793056488037109,-0.0954122543334961,0.4348127245903015
1772883332713338000,5.222338134765625,0.7686576843261719,-0.05334329605102539,0.48166361451148987
1772883332729940700,5.238940673828125,0.9678030014038086,-0.10340738296508789,0.44744858145713806
1772883332746549500,5.255549560546875,1.143453598022461,-0.04300737380981445,0.37594538927078247
1772883332763153700,5.272153564453125,1.112863540649414,0.11437749862670898,0.42021697759628296
1772883332779765500,5.288765625,0.9811592102050781,0.2039651870727539,0.48488080501556396
1772883332796366000,5.305365966796875,0.9966459274291992,0.29743528366088867,0.2869415283203125
1772883332812953600,5.32195361328125,0.877471923828125,0.3467693328857422,0.0222625732421875
1772883332829562600,5.338562744140625,0.640894889831543,0.3241701126098633,-0.08545655012130737
1772883332846167800,5.355167724609375,0.5641908645629883,0.1556849479675293,0.16369783878326416
1772883332862769400,5.371769287109375,0.8471593856811523,-0.1862339973449707,0.5573227405548096
1772883332879382800,5.3883828125,1.3756608963012695,-0.6215214729309082,0.757771909236908
1772883332895984000,5.404984130859375,1.6786136627197266,-1.0898189544677734,0.8117940425872803
1772883332912589000,5.421589111328125,1.6262187957763672,-1.4826979637145996,0.7410065531730652
1772883332929213000,5.438212890625,1.125199317932129,-1.685762882232666,0.5758094787597656
1772883332945798700,5.454798583984375,0.345306396484375,-1.6487107276916504,0.4579320251941681
1772883332962416400,5.47141650390625,-0.28133201599121094,-1.5022602081298828,0.49051839113235474
1772883332979027200,5.488027099609375,-0.39101409912109375,-1.3650450706481934,0.5493199825286865
1772883332995630000,5.504630126953125,-0.14153194427490234,-1.3135151863098145,0.629898190498352
1772883333012235000,5.521235107421875,0.1335000991821289,-1.2375550270080566,0.797243595123291
1772883333028841000,5.537841064453125,0.16325092315673828,-1.1600279808044434,1.011399507522583
1772883333045445400,5.5544453125,0.055233001708984375,-1.043642520904541,1.1855099201202393
1772883333062051300,5.57105126953125,-0.061783790588378906,-0.9562087059020996,1.2194750308990479
1772883333078653200,5.587653076171875,-0.009584426879882812,-0.9590816497802734,1.0814237594604492
1772883333095266000,5.60426611328125,0.4240293502807617,-1.0804433822631836,0.8986023664474487
1772883333111867100,5.6208671875,0.9116573333740234,-1.2504239082336426,0.7873380780220032
1772883333128469500,5.637469482421875,1.2062206268310547,-1.3659324645996094,0.6822652816772461
1772883333145082000,5.65408203125,1.1277351379394531,-1.3981297016143799,0.5091223120689392
1772883333161679400,5.670679443359375,0.5667486190795898,-1.3071064949035645,0.22594550251960754
1772883333178293000,5.68729296875,-0.17518997192382812,-1.1376819610595703,-0.08464984595775604
1772883333194894300,5.703894287109375,-0.7701964378356934,-0.9240803718566895,-0.22677019238471985
1772883333211499800,5.720499755859375,-1.0627002716064453,-0.697990894317627,-0.1087336614727974
1772883333228105200,5.737105224609375,-1.0033636093139648,-0.5558724403381348,0.1718738079071045
1772883333244709600,5.753709716796875,-0.7223644256591797,-0.46460390090942383,0.38189369440078735
1772883333261312000,5.77031201171875,-0.5614290237426758,-0.4479694366455078,0.42560556530952454
1772883333277925400,5.78692529296875,-0.5428934097290039,-0.44419336318969727,0.2755327522754669
1772883333294509000,5.803509033203125,-0.6041059494018555,-0.42542362213134766,0.0709380954504013
1772883333311117800,5.820117919921875,-0.6618099212646484,-0.40213584899902344,-0.10002440214157104
1772883333327720400,5.836720458984375,-0.726841926574707,-0.30684328079223633,-0.1411493718624115
1772883333344329500,5.85332958984375,-0.7294235229492188,-0.21679306030273438,-0.12385812401771545
1772883333360937700,5.869937744140625,-0.6440715789794922,-0.15540027618408203,-0.09502475708723068
1772883333377538000,5.8865380859375,-0.4830818176269531,-0.16260719299316406,-0.06283032894134521
1772883333394145300,5.903145263671875,-0.20868301391601562,-0.1875920295715332,-0.024171307682991028
1772883333410753500,5.91975341796875,-0.012684822082519531,-0.12837982177734375,0.03724046051502228
1772883333427369500,5.936369384765625,0.0034952163696289062,-0.03994941711425781,0.11771489679813385
1772883333443970600,5.952970458984375,-0.15790271759033203,0.060729026794433594,0.17776432633399963
1772883333460563500,5.9695634765625,-0.19922351837158203,0.1858220100402832,0.19492550194263458
1772883333477190000,5.98618994140625,-0.12841033935546875,0.2616548538208008,0.21412794291973114
1772883333493791200,6.002791259765625,0.00518798828125,0.36330604553222656,0.2295774668455124
1772883333510395600,6.019395751953125,-0.00009059906005859375,0.4063267707824707,0.2754055857658386
1772883333527002000,6.036002197265625,-0.0817270278930664,0.4148707389831543,0.3389909863471985
1772883333543604000,6.05260400390625,0.08016204833984375,0.3913874626159668,0.4115043878555298
1772883333560215000,6.069215087890625,0.5644760131835938,0.48592424392700195,0.4244517683982849
1772883333576817700,6.085817626953125,0.8986053466796875,0.45233774185180664,0.5121654272079468
1772883333593423400,6.10242333984375,1.043008804321289,0.44291257858276367,0.4736287593841553
1772883333610028300,6.1190283203125,0.9830245971679688,0.5351738929748535,0.3737994432449341
1772883333626630700,6.135630615234375,1.0482101440429688,0.5302004814147949,0.28049278259277344
1772883333643247000,6.1522470703125,1.2548561096191406,0.42874574661254883,0.1718592494726181
1772883333659835400,6.16883544921875,1.5160951614379883,0.21893835067749023,0.2051609605550766
1772883333676454400,6.185454345703125,1.840494155883789,-0.14303827285766602,0.5227688550949097
1772883333693055000,6.202054931640625,2.163090705871582,-0.6002287864685059,0.7996002435684204
1772883333709660200,6.21866015625,2.2500619888305664,-1.0449905395507812,0.8465033769607544
1772883333726269400,6.23526953125,1.9503650665283203,-1.4026036262512207,0.5895127058029175
1772883333742884000,6.251884033203125,1.3480758666992188,-1.704153060913086,0.246994286775589
1772883333759479800,6.268479736328125,0.6650400161743164,-1.851137638092041,-0.10382959246635437
1772883333776083500,6.28508349609375,-0.04298973083496094,-1.8500244617462158,-0.32418519258499146
1772883333792670500,6.30167041015625,-0.6320123672485352,-1.7073676586151123,-0.3291075825691223
1772883333809279500,6.318279541015625,-0.9625306129455566,-1.4699571132659912,-0.2761763334274292
1772883333825884400,6.334884521484375,-0.9067392349243164,-1.3367729187011719,-0.21826690435409546
1772883333842486300,6.351486328125,-0.6628866195678711,-1.2688095569610596,-0.060526177287101746
1772883333859095600,6.368095458984375,-0.5008535385131836,-1.1623406410217285,0.07120785117149353
1772883333875703800,6.384703857421875,-0.3389902114868164,-1.0897598266601562,0.09263479709625244
1772883333892306000,6.401305908203125,-0.230438232421875,-1.0051517486572266,-0.04501540958881378
1772883333908928000,6.417927978515625,-0.045966148376464844,-1.02561616897583,-0.17010235786437988
1772883333925535000,6.434534912109375,0.37307167053222656,-1.135671854019165,-0.2143368273973465
1772883333942127900,6.4511279296875,1.013890266418457,-1.284468173980713,-0.20980438590049744
1772883333958752000,6.467751953125,1.8565559387207031,-1.4717111587524414,-0.06559246778488159
1772883333975340000,6.484340087890625,2.4411163330078125,-1.5991663932800293,-0.025932669639587402
1772883333991952100,6.5009521484375,2.36734676361084,-1.665278673171997,-0.11987462639808655
1772883334008557300,6.517557373046875,1.682840347290039,-1.5330135822296143,-0.28133735060691833
1772883334025158400,6.534158447265625,0.7354259490966797,-1.2615232467651367,-0.2270563244819641
1772883334041773300,6.550773193359375,-0.07144546508789062,-0.9530138969421387,-0.017810821533203125
1772883334058374000,6.567373779296875,-0.5426816940307617,-0.7288122177124023,0.2204023003578186
1772883334074979000,6.58397900390625,-0.614222526550293,-0.6519384384155273,0.3148077726364136
1772883334091583700,6.600583740234375,-0.5617084503173828,-0.7075881958007812,0.258232057094574
1772883334108185300,6.617185302734375,-0.4906625747680664,-0.7962784767150879,0.12743747234344482
1772883334124799500,6.633799560546875,-0.4505634307861328,-0.8402776718139648,-0.0007894635200500488
1772883334141395200,6.650395263671875,-0.5265083312988281,-0.779191255569458,-0.08954590559005737
1772883334158006000,6.667006103515625,-0.6553235054016113,-0.6459445953369141,-0.09002524614334106
1772883334174615300,6.683615234375,-0.6978263854980469,-0.47982263565063477,0.00043898820877075195
1772883334191216600,6.700216552734375,-0.5360698699951172,-0.3556175231933594,0.09467077255249023
1772883334207821000,6.716821044921875,-0.24614810943603516,-0.31331300735473633,0.10951066017150879
1772883334224427000,6.733427001953125,-0.027986526489257812,-0.2755904197692871,0.08264029026031494
1772883334241019000,6.750018798828125,0.07950115203857422,-0.21366071701049805,0.1497405767440796
1772883334257638100,6.76663818359375,0.18371963500976562,-0.12094879150390625,0.21945136785507202
1772883334274224000,6.78322412109375,0.338592529296875,-0.03338050842285156,0.28909599781036377
1772883334290831400,6.799831298828125,0.4793691635131836,0.059572696685791016,0.36107897758483887
1772883334307440000,6.816440185546875,0.49003028869628906,0.13043737411499023,0.4156000018119812
1772883334324045800,6.8330458984375,0.5217571258544922,0.18160629272460938,0.4667590856552124
1772883334340651000,6.849651123046875,0.7076425552368164,0.13861846923828125,0.4496452212333679
1772883334357256400,6.86625634765625,0.8930950164794922,0.06805753707885742,0.4182690978050232
1772883334373861600,6.882861572265625,0.9423513412475586,0.08607959747314453,0.3657383918762207
1772883334390467600,6.899467529296875,0.8242635726928711,0.11445093154907227,0.3162863850593567
1772883334407089400,6.91608935546875,0.7338752746582031,0.05921792984008789,0.31315433979034424
1772883334423688000,6.93268798828125,0.704864501953125,0.04979419708251953,0.21036487817764282
1772883334440300800,6.94930078125,0.5498561859130859,0.07424163818359375,0.34303832054138184
1772883334456903000,6.96590283203125,0.42577648162841797,0.04412221908569336,0.7218044400215149
1772883334473508000,6.982508056640625,0.32450294494628906,-0.014651775360107422,1.0788527727127075
1772883334490113000,6.999113037109375,0.35361194610595703,-0.19248151779174805,1.2076022624969482
1772883334506715400,7.01571533203125,0.6905612945556641,-0.5749063491821289,1.1084535121917725
1772883334523323100,7.0323232421875,1.0838956832885742,-0.9963679313659668,0.9873683452606201
1772883334539934200,7.048934326171875,1.242232322692871,-1.2911794185638428,0.9424259662628174
1772883334556530700,7.06553076171875,1.131178855895996,-1.4914765357971191,0.755871593952179
1772883334573144000,7.08214404296875,0.7957401275634766,-1.6111164093017578,0.5705162286758423
1772883334589746000,7.098745849609375,0.43334484100341797,-1.6356010437011719,0.42128586769104004
1772883334606350600,7.1153505859375,0.23739147186279297,-1.4966225624084473,0.4171818494796753
1772883334622956500,7.13195654296875,0.0582427978515625,-1.2816288471221924,0.555319607257843
1772883334639561000,7.14856103515625,-0.18761825561523438,-1.0992770195007324,0.6855540871620178
1772883334656167400,7.16516748046875,-0.3068361282348633,-0.9251465797424316,0.722842276096344
1772883334672772900,7.18177294921875,-0.32989978790283203,-0.8793020248413086,0.8349741101264954
1772883334689377500,7.19837744140625,-0.39080142974853516,-0.8103270530700684,1.0528403520584106
1772883334705983000,7.21498291015625,-0.1146240234375,-0.868156909942627,1.1601598262786865
1772883334722584600,7.23158447265625,0.4332761764526367,-1.0409455299377441,1.1002802848815918
1772883334739198200,7.2481982421875,0.9227123260498047,-1.2499604225158691,0.9628229737281799
1772883334755799600,7.264799560546875,1.0987920761108398,-1.4153051376342773,0.7406301498413086
1772883334772387600,7.2813876953125,0.6638069152832031,-1.4182140827178955,0.49769800901412964
1772883334788996400,7.297996337890625,-0.061126708984375,-1.2078919410705566,0.27479296922683716
1772883334805601800,7.314601806640625,-0.7233977317810059,-0.9619531631469727,0.16239434480667114
1772883334822207200,7.331207275390625,-1.109151840209961,-0.7792396545410156,0.059464335441589355
1772883334838812200,7.347812255859375,-1.144186019897461,-0.7244629859924316,0.01706022024154663
1772883334855418000,7.364418212890625,-1.1139955520629883,-0.6037230491638184,0.040274202823638916
1772883334872023300,7.381023193359375,-1.1001262664794922,-0.44692039489746094,0.08974665403366089
1772883334888628700,7.397628662109375,-0.9903125762939453,-0.33136606216430664,0.004292845726013184
1772883334905250600,7.41425048828125,-0.6924829483032227,-0.2827892303466797,-0.16291546821594238
1772883334921853200,7.430853271484375,-0.5126953125,-0.25847530364990234,-0.3637649714946747
1772883334938456300,7.447456298828125,-0.5781259536743164,-0.15993022918701172,-0.4724695682525635
1772883334955067100,7.464067138671875,-0.6776752471923828,-0.02252054214477539,-0.46993598341941833
1772883334971669000,7.4806689453125,-0.6599912643432617,0.13970470428466797,-0.35005003213882446
1772883334988275200,7.497275146484375,-0.5355262756347656,0.2728910446166992,-0.2483506202697754
1772883335004879600,7.513879638671875,-0.41954803466796875,0.3392162322998047,-0.16098284721374512
1772883335021482800,7.530482666015625,-0.2880439758300781,0.38735055923461914,-0.09504938125610352
1772883335038076700,7.54707666015625,-0.06221485137939453,0.4409918785095215,-0.040735721588134766
1772883335054696700,7.56369677734375,0.14076995849609375,0.4991798400878906,-0.05795186758041382
1772883335071302400,7.580302490234375,0.14093971252441406,0.538306713104248,-0.02014237642288208
1772883335087906800,7.59690673828125,0.08507442474365234,0.6314005851745605,0.010658025741577148
1772883335104512300,7.61351220703125,0.07416343688964844,0.6540064811706543,0.007954716682434082
1772883335121113600,7.630113525390625,0.1849994659423828,0.6164684295654297,-0.014654099941253662
1772883335137727500,7.6467275390625,0.28241634368896484,0.5371670722961426,0.01566249132156372
1772883335154312000,7.66331201171875,0.3402576446533203,0.41187524795532227,0.12143450975418091
1772883335170934000,7.67993408203125,0.504033088684082,0.2683424949645996,0.14221101999282837
1772883335187539700,7.696539794921875,0.7013559341430664,0.23563671112060547,0.0028145909309387207
1772883335204162800,7.713162841796875,0.6164665222167969,0.25477123260498047,-0.12874281406402588
1772883335220745700,7.729745849609375,0.5669946670532227,0.12430047988891602,-0.1366066038608551
1772883335237359900,7.74635986328125,0.8102569580078125,0.20157718658447266,-0.22336772084236145
1772883335253944300,7.7629443359375,0.6618947982788086,0.22842884063720703,-0.13870802521705627
1772883335270552600,7.779552490234375,0.5550670623779297,0.256744384765625,0.028975367546081543
1772883335287157800,7.79615771484375,1.1032190322875977,0.3116006851196289,0.32704153656959534
1772883335303763000,7.812762939453125,1.7378778457641602,0.2568788528442383,0.7955676913261414
1772883335320369000,7.829368896484375,2.085103988647461,-0.017932891845703125,1.1328192949295044
1772883335336974000,7.84597412109375,2.126049041748047,-0.3722095489501953,1.2125520706176758
1772883335353579500,7.86257958984375,1.9213075637817383,-0.6722812652587891,1.062726616859436
1772883335370184400,7.879184326171875,1.5894298553466797,-0.968085765838623,0.7299827933311462
1772883335386794000,7.8957939453125,1.1237554550170898,-1.215625524520874,0.4442409873008728
1772883335403409200,7.9124091796875,0.6192741394042969,-1.349428653717041,0.3342447578907013
1772883335420011000,7.929010986328125,0.05088520050048828,-1.3770215511322021,0.2476387917995453
1772883335436624000,7.945623779296875,-0.5159358978271484,-1.3711087703704834,0.06949234008789062
1772883335453225500,7.9622255859375,-0.9097232818603516,-1.400904655456543,-0.1875690519809723
1772883335469830700,7.97883056640625,-1.029496192932129,-1.4467825889587402,-0.3759337365627289
1772883335486436400,7.995436279296875,-0.88629150390625,-1.5290040969848633,-0.5489665269851685
1772883335503035000,8.012034912109375,-0.6111345291137695,-1.5805668830871582,-0.6954641342163086
1772883335519626800,8.028626708984374,-0.24471378326416016,-1.5802583694458008,-0.8477810025215149
1772883335536236800,8.04523681640625,0.1261577606201172,-1.6101369857788086,-0.921403706073761
1772883335552840700,8.0618408203125,0.4316415786743164,-1.6564369201660156,-0.933801531791687
1772883335569458700,8.078458740234375,0.7095413208007812,-1.6469502449035645,-0.7837814092636108
1772883335586069200,8.0950693359375,0.9649562835693359,-1.6055238246917725,-0.5303782224655151
1772883335602673700,8.111673583984375,1.2803049087524414,-1.488086223602295,-0.25748151540756226
1772883335619275500,8.128275634765625,1.562453269958496,-1.3622756004333496,0.019041895866394043
1772883335635889000,8.144888916015624,1.6134185791015625,-1.208251953125,0.21724599599838257
1772883335652490200,8.161490234375,1.2690935134887695,-1.0778021812438965,0.2504776120185852
1772883335669095700,8.178095703125,0.6954784393310547,-0.9650325775146484,0.27247190475463867
1772883335685701400,8.194701416015626,0.18967342376708984,-0.8631143569946289,0.38064444065093994
1772883335702305800,8.211305908203125,-0.21459293365478516,-0.7760052680969238,0.5714596509933472
1772883335718908700,8.22790869140625,-0.5596837997436523,-0.7247328758239746,0.6657390594482422
1772883335735521300,8.244521240234375,-0.8485584259033203,-0.7014412879943848,0.6067216396331787
1772883335752086500,8.26108642578125,-1.0898618698120117,-0.6716799736022949,0.4584205150604248
1772883335768714000,8.2777138671875,-1.129807472229004,-0.7004885673522949,0.20461994409561157
1772883335785320400,8.294320556640624,-1.1470093727111816,-0.698270320892334,0.009467124938964844
1772883335801924900,8.3109248046875,-1.1872291564941406,-0.5902242660522461,-0.01838022470474243
1772883335818528800,8.32752880859375,-1.1044812202453613,-0.42203521728515625,0.054805755615234375
1772883335835134500,8.344134521484374,-0.7540931701660156,-0.31568241119384766,0.17521369457244873
1772883335851744300,8.360744140625,-0.2729320526123047,-0.2550930976867676,0.2861282229423523
1772883335868346600,8.3773466796875,0.10558223724365234,-0.21483516693115234,0.2061750888824463
1772883335884969000,8.393968994140625,0.13029766082763672,-0.2070927619934082,0.0075363218784332275
1772883335901571000,8.410571044921875,0.054965972900390625,-0.11213111877441406,-0.039658159017562866
1772883335918173200,8.427173095703125,0.10198688507080078,0.016870975494384766,0.22589397430419922
1772883335934785300,8.443785400390626,0.37110424041748047,0.08474063873291016,0.5203289985656738
1772883335951387600,8.4603876953125,0.6583003997802734,-0.006270885467529297,0.6475541591644287
1772883335967992300,8.476992431640625,0.9105291366577148,-0.16731786727905273,0.6335819959640503
1772883335984598500,8.4935986328125,1.1295585632324219,-0.12213516235351562,0.4930064380168915
1772883336001203500,8.510203369140624,1.0271272659301758,0.026546478271484375,0.4383580684661865
1772883336017807000,8.52680712890625,0.9838552474975586,0.04782581329345703,0.3866170644760132
1772883336034415900,8.543415771484375,1.076695442199707,0.2639918327331543,0.16459962725639343
1772883336051020300,8.560020263671875,0.9532918930053711,0.3353395462036133,0.31417953968048096
1772883336067624700,8.576624755859376,0.9656648635864258,0.37164783477783203,0.6709171533584595
1772883336084230700,8.593230712890625,1.1524677276611328,0.21128320693969727,1.0523345470428467
1772883336100835600,8.609835693359376,1.3065099716186523,-0.21083879470825195,1.2246369123458862
1772883336117439700,8.626439697265624,1.413522720336914,-0.709080696105957,1.0707472562789917
1772883336134048500,8.643048583984376,1.3554258346557617,-1.201112985610962,0.7776415348052979
1772883336150652400,8.65965234375,1.1235008239746094,-1.5207548141479492,0.4827047884464264
1772883336167257000,8.676257080078125,0.7084312438964844,-1.69398832321167,0.27767735719680786
1772883336183863000,8.692863037109374,0.2739715576171875,-1.6421785354614258,0.18184472620487213
1772883336200468700,8.70946875,-0.04046058654785156,-1.5181350708007812,0.20695003867149353
1772883336217068500,8.726068603515625,-0.2016277313232422,-1.3370261192321777,0.28666460514068604
1772883336233667000,8.7426669921875,-0.3408088684082031,-1.1071410179138184,0.4337555170059204
1772883336250271200,8.759271240234375,-0.45893239974975586,-0.9098105430603027,0.6891461610794067
1772883336266876200,8.775876220703125,-0.44800662994384766,-0.7029881477355957,1.0512957572937012
1772883336283481300,8.7924814453125,-0.4554920196533203,-0.48417091369628906,1.3782374858856201
1772883336300086800,8.809086669921875,-0.33969688415527344,-0.3539609909057617,1.4208441972732544
1772883336316692700,8.825692626953124,0.12914657592773438,-0.518132209777832,1.2688831090927124
1772883336333298000,8.8422978515625,0.6143102645874023,-0.7630085945129395,1.124097466468811
1772883336349904400,8.858904296875,1.0120153427124023,-0.9266948699951172,0.6824507117271423
1772883336366506800,8.8755068359375,1.0645008087158203,-1.093517541885376,0.21307970583438873
1772883336383131100,8.892131103515625,0.7286748886108398,-1.132049560546875,-0.3028634786605835
1772883336399733000,8.90873291015625,0.1220541000366211,-0.9673519134521484,-0.5880363583564758
1772883336416336100,8.925336181640626,-0.35140514373779297,-0.7453250885009766,-0.7399302124977112
1772883336432946400,8.941946533203126,-0.5347166061401367,-0.6140308380126953,-0.7998374104499817
1772883336449549800,8.9585498046875,-0.5749907493591309,-0.5310359001159668,-0.7616116404533386
1772883336466154500,8.975154541015625,-0.5268440246582031,-0.46299219131469727,-0.6818164587020874
1772883336482760200,8.99176025390625,-0.45100975036621094,-0.3390183448791504,-0.6569464206695557
1772883336499365000,9.008365234375,-0.42238712310791016,-0.2358384132385254,-0.6400272846221924
1772883336515970600,9.024970458984376,-0.43936729431152344,-0.09815073013305664,-0.6176843047142029
1772883336532577000,9.041576904296875,-0.49516773223876953,0.0135955810546875,-0.5971813797950745
1772883336549181700,9.058181640625,-0.4955558776855469,0.03063488006591797,-0.6417428255081177
1772883336565786600,9.07478662109375,-0.4318666458129883,0.03152132034301758,-0.7983238101005554
1772883336582392800,9.091392822265625,-0.4018735885620117,-0.0725860595703125,-0.9889957308769226
1772883336598998800,9.107998779296874,-0.3197774887084961,-0.14947843551635742,-1.067298173904419
1772883336615597600,9.12459765625,-0.036759376525878906,-0.1649150848388672,-0.9639025926589966
1772883336632212700,9.141212646484375,0.4734468460083008,-0.22440052032470703,-0.9570719003677368
1772883336648814300,9.157814453125,0.7242136001586914,-0.3793511390686035,-1.0125656127929688
1772883336665419300,9.174419189453126,0.6438636779785156,-0.43989992141723633,-1.0470017194747925
1772883336682025200,9.191025146484375,0.5232725143432617,-0.3492870330810547,-0.896783709526062
1772883336698627000,9.207626953125,0.5806617736816406,-0.32667970657348633,-0.6543920636177063
1772883336715237000,9.224237060546875,0.6911802291870117,-0.3109302520751953,-0.5191310048103333
1772883336731825200,9.2408251953125,0.6244029998779297,-0.1953415870666504,-0.4052872061729431
1772883336748432600,9.2574326171875,0.47470760345458984,-0.07274341583251953,-0.3142363131046295
1772883336765038000,9.2740380859375,0.30069923400878906,0.16113948822021484,-0.25048619508743286
1772883336781643800,9.290643798828125,0.3369903564453125,0.21478796005249023,-0.20551587641239166
1772883336798248700,9.307248779296875,1.1233243942260742,0.04552268981933594,-0.25869667530059814
