time,seconds_elapsed,z,y,x
1772883327656999200,0.165999267578125,9.015557289123535,3.689134359359741,0.2787638306617737
1772883327673616400,0.182616455078125,8.986844062805176,3.6699917316436768,0.24526432156562805
1772883327690218000,0.199218017578125,8.93539810180664,3.8087754249572754,0.1459621787071228
1772883327706826500,0.215826416015625,8.9910306930542,3.9565322399139404,0.26141586899757385
1772883327723428600,0.2324287109375,9.098708152770996,4.119842529296875,0.38644084334373474
1772883327740033500,0.249033447265625,9.360722541809082,4.2454657554626465,0.5437689423561096
1772883327756655400,0.2656552734375,9.719047546386719,4.329214572906494,0.7094719409942627
1772883327773258200,0.28225830078125,9.90149974822998,4.288536548614502,0.727418065071106
1772883327789864400,0.298864501953125,9.92542839050293,4.265206336975098,0.6891329288482666
1772883327806466600,0.315466552734375,9.705886840820312,4.24785852432251,0.6999006271362305
1772883327823074600,0.332074462890625,9.43310546875,4.240679740905762,0.6675975322723389
1772883327839677200,0.34867724609375,9.691530227661133,4.24367094039917,0.6711867451667786
1772883327856279300,0.365279296875,10.051051139831543,4.218546390533447,0.7166503667831421
1772883327872893000,0.381892822265625,10.580463409423828,4.0803608894348145,0.7363911867141724
1772883327889495600,0.39849560546875,10.750353813171387,4.127020835876465,0.4875376224517822
1772883327906099200,0.41509912109375,10.388439178466797,4.243072986602783,0.42771705985069275
1772883327922705400,0.431705322265625,10.13180923461914,4.289732933044434,0.8602197170257568
1772883327939307500,0.4483076171875,10.540982246398926,4.126422882080078,1.4404792785644531
1772883327955922200,0.464922119140625,11.171490669250488,3.57906436920166,1.9154545068740845
1772883327972521200,0.481521240234375,11.435897827148438,2.8905298709869385,2.2582263946533203
1772883327989128200,0.498128173828125,11.35214900970459,2.455035924911499,2.107478618621826
1772883328005729800,0.514729736328125,11.065608024597168,2.0338993072509766,1.7467604875564575
1772883328022337300,0.531337158203125,10.412367820739746,1.7437695264816284,1.222732424736023
1772883328039002000,0.548002197265625,9.480961799621582,1.7563318014144897,0.8261220455169678
1772883328055546600,0.564546630859375,8.8648099899292,1.908874273300171,0.6825526356697083
1772883328072159700,0.58115966796875,8.654241561889648,2.197209358215332,0.8147560954093933
1772883328088757500,0.597757568359375,8.479565620422363,2.451446771621704,1.1096714735031128
1772883328105369600,0.61436962890625,8.47597599029541,2.7451658248901367,1.451246976852417
1772883328121973500,0.630973388671875,8.46042251586914,2.9144580364227295,1.7682958841323853
1772883328138557700,0.6475576171875,8.48435115814209,2.905484914779663,1.7635103464126587
1772883328155162000,0.664162109375,8.823533058166504,2.895315408706665,1.6654045581817627
1772883328171777000,0.680777099609375,9.019744873046875,2.851048231124878,1.534995675086975
1772883328188371000,0.697370849609375,9.038289070129395,2.861217737197876,1.4488540887832642
1772883328204981000,0.71398095703125,9.295517921447754,2.967698335647583,1.6157535314559937
1772883328221586400,0.73058642578125,9.19023323059082,2.971287488937378,1.6259230375289917
1772883328238239700,0.74723974609375,8.752944946289062,3.002394199371338,1.3561322689056396
1772883328254818000,0.763818115234375,8.285148620605469,3.0442686080932617,0.8949156403541565
1772883328271407900,0.780407958984375,7.8077802658081055,3.0717861652374268,0.4145565330982208
1772883328288020700,0.797020751953125,7.4877400398254395,3.1579277515411377,0.02512463741004467
1772883328304624000,0.8136240234375,7.576872825622559,3.202194929122925,-0.07058826833963394
1772883328321228800,0.830228759765625,7.800601959228516,3.304488182067871,0.03888336941599846
1772883328337838800,0.8468388671875,7.9280195236206055,3.4570305347442627,0.23988047242164612
1772883328354441500,0.86344140625,7.982456207275391,3.620340585708618,0.2602194547653198
1772883328371058000,0.880057861328125,8.066802978515625,3.726821184158325,0.21236300468444824
1772883328387643000,0.896642822265625,8.12123966217041,3.8709888458251953,0.24167509377002716
1772883328404256800,0.9132568359375,8.210372924804688,3.9912281036376953,0.2709871530532837
1772883328420864500,0.929864501953125,8.481359481811523,4.0666022300720215,0.2225325107574463
1772883328437468400,0.946468505859375,8.634500503540039,4.039682865142822,0.18305093050003052
1772883328454075100,0.9630751953125,8.605188369750977,4.106083869934082,0.23629122972488403
1772883328470677500,0.979677490234375,8.70508861541748,4.191627025604248,0.4325026869773865
1772883328487283700,0.99628369140625,8.806185722351074,4.215555191040039,0.5850451588630676
1772883328503888100,1.01288818359375,9.040681838989258,4.241278171539307,0.6699903607368469
1772883328520496000,1.02949609375,9.251250267028809,4.243072986602783,0.6975077986717224
1772883328537099800,1.046099853515625,9.337990760803223,4.1970109939575195,0.6346961855888367
1772883328553700400,1.062700439453125,9.418149948120117,4.250251293182373,0.6107679605484009
1772883328570313000,1.07931298828125,9.22134017944336,4.301098823547363,0.6215356588363647
1772883328586921000,1.0959208984375,9.311071395874023,4.401597023010254,0.7316055297851562
1772883328603519700,1.112519775390625,9.46899700164795,4.421338081359863,0.8602197170257568
1772883328620111000,1.129111083984375,9.415159225463867,4.267001152038574,0.916451096534729
1772883328636716500,1.145716552734375,9.330811500549316,4.353740692138672,0.7316055297851562
1772883328653326300,1.162326416015625,9.401400566101074,4.402793884277344,0.6741777658462524
1772883328669929500,1.178929443359375,10.034899711608887,4.280759811401367,0.6358926296234131
1772883328686523400,1.1955234375,10.63250732421875,4.23230504989624,0.38344982266426086
1772883328703142000,1.212141845703125,10.614561080932617,4.17427921295166,0.3732803463935852
1772883328719745300,1.228745361328125,10.224531173706055,4.31306266784668,0.4486542344093323
1772883328736366600,1.24536669921875,9.835099220275879,4.545166492462158,0.8398807644844055
1772883328752970000,1.261969970703125,10.1216402053833,4.505086898803711,1.3830515146255493
1772883328769575200,1.2785751953125,10.709077835083008,4.160520553588867,1.6402798891067505
1772883328786176800,1.2951767578125,11.034502029418945,3.6568312644958496,1.6396816968917847
1772883328802785300,1.311785400390625,11.24746322631836,3.200998544692993,1.4817553758621216
1772883328819391000,1.328390869140625,11.254042625427246,2.782254457473755,1.196411371231079
1772883328835996200,1.34499609375,11.214561462402344,2.4358935356140137,0.7495517134666443
1772883328852599800,1.361599853515625,10.753344535827637,2.1511476039886475,0.4007977843284607
1772883328869229000,1.37822900390625,10.023533821105957,2.20737886428833,0.17108681797981262
1772883328885811200,1.394811279296875,9.226125717163086,2.366501569747925,0.15732808411121368
1772883328902400500,1.411400390625,8.680562019348145,2.6189444065093994,0.19621145725250244
1772883328919023900,1.42802392578125,8.481359481811523,2.836092948913574,0.31345975399017334
1772883328935625700,1.444625732421875,8.657830238342285,2.89890456199646,0.4420739710330963
1772883328952229600,1.461229736328125,8.785846710205078,2.967100143432617,0.48514479398727417
1772883328968845000,1.477844970703125,8.743971824645996,3.1345977783203125,0.3858426511287689
1772883328985441800,1.49444189453125,8.74038314819336,3.297907829284668,0.33439695835113525
1772883329002057500,1.511057373046875,9.022137641906738,3.3302109241485596,0.2709871530532837
1772883329018644000,1.52764404296875,9.1986083984375,3.3415768146514893,0.2560320198535919
1772883329035277000,1.544277099609375,9.125627517700195,3.4408788681030273,0.31465616822242737
1772883329051864300,1.5608642578125,8.86780071258545,3.446262836456299,0.4833501875400543
1772883329068469000,1.577468994140625,8.580063819885254,3.5054850578308105,0.4995017349720001
1772883329085074000,1.594073974609375,8.325826644897461,3.5359935760498047,0.5491527915000916
1772883329101680400,1.610680419921875,8.324629783630371,3.5509488582611084,0.41994038224220276
1772883329118269400,1.62726953125,8.569295883178711,3.436093330383301,0.15493527054786682
1772883329134879700,1.643879638671875,8.770891189575195,3.3672995567321777,0.062213387340307236
1772883329151482600,1.660482666015625,8.565108299255371,3.3744781017303467,0.06819544732570648
1772883329168088600,1.677088623046875,7.87358283996582,3.5712878704071045,0.23629122972488403
1772883329184692700,1.693692626953125,7.27537727355957,3.8608193397521973,0.3613162338733673
1772883329201298400,1.71029833984375,6.912266254425049,4.016352653503418,0.18783657252788544
1772883329217908200,1.726908203125,7.013363361358643,4.130012035369873,-0.13280165195465088
1772883329234492400,1.743492431640625,7.197012424468994,4.234099864959717,-0.3242274820804596
1772883329251129000,1.760129150390625,7.1988067626953125,4.406383037567139,-0.3038884699344635
1772883329267732000,1.77673193359375,7.105486869812012,4.5338006019592285,-0.24466611444950104
1772883329284337200,1.793337158203125,7.124629497528076,4.595416069030762,-0.129810631275177
1772883329300944400,1.8099443359375,7.2711896896362305,4.748556613922119,0.052043892443180084
1772883329317548300,1.82654833984375,7.527820110321045,4.874777793884277,0.14715859293937683
1772883329334156800,1.84315673828125,7.970492362976074,4.989633560180664,0.15553347766399384
1772883329350760700,1.8597607421875,8.214560508728027,5.020740032196045,0.2309073805809021
1772883329367363600,1.876363525390625,8.173882484436035,5.139782905578613,0.26081767678260803
1772883329383968500,1.892968505859375,8.043473243713379,5.224130153656006,0.2715853750705719
1772883329400559600,1.9095595703125,8.201997756958008,5.248656272888184,0.4001995921134949
1772883329417176600,1.926176513671875,8.557332038879395,5.274379253387451,0.6849454641342163
1772883329433769700,1.942769775390625,9.119047164916992,5.2354960441589355,0.9014959335327148
1772883329450392600,1.959392578125,9.299705505371094,5.069194793701172,0.9613165259361267
1772883329466997500,1.97599755859375,9.429515838623047,5.221138954162598,0.7465606927871704
1772883329483598800,1.992598876953125,9.180662155151367,5.24626350402832,0.8057830333709717
1772883329500228900,2.009228759765625,9.002995491027832,5.254638671875,0.7208378314971924
1772883329516812300,2.025812255859375,8.93420124053955,5.5142598152160645,0.48394837975502014
1772883329533416000,2.042416015625,8.892327308654785,5.695516109466553,0.4707878530025482
1772883329550020600,2.0590205078125,8.74756145477295,5.817550182342529,0.6017948985099792
1772883329566631400,2.07563134765625,8.596813201904297,5.770890235900879,0.8703892230987549
1772883329583238400,2.09223828125,8.584251403808594,5.56151819229126,1.2610175609588623
1772883329599827200,2.1088271484375,8.9910306930542,5.1565327644348145,1.6002001762390137
1772883329616432000,2.12543212890625,9.496515274047852,4.491926193237305,1.6259230375289917
1772883329633039400,2.142039306640625,9.68494987487793,3.8494534492492676,1.428515076637268
1772883329649637600,2.1586376953125,9.467801094055176,3.572484254837036,1.0785647630691528
1772883329666247700,2.17524755859375,8.98803997039795,3.5641093254089355,0.9092726111412048
1772883329682851300,2.191851318359375,8.511270523071289,3.702893018722534,0.8410771489143372
1772883329699441000,2.20844091796875,8.47178840637207,4.032504558563232,0.8578268885612488
1772883329716077800,2.225077880859375,8.645866394042969,4.205984115600586,0.9110672473907471
1772883329732680200,2.24168017578125,8.596813201904297,4.314259052276611,1.0791629552841187
1772883329749262000,2.258261962890625,8.5100736618042,4.421338081359863,1.3004990816116333
1772883329765898500,2.2748984375,8.452646255493164,4.486542224884033,1.4883357286453247
1772883329782493700,2.29149365234375,8.623732566833496,4.555335998535156,1.4733805656433105
1772883329799104500,2.3081044921875,8.8109712600708,4.481756687164307,1.3902299404144287
1772883329815706400,2.324706298828125,8.869595527648926,4.3310089111328125,1.1258230209350586
1772883329832339000,2.3413388671875,8.871988296508789,4.0803608894348145,0.7651050686836243
1772883329848923000,2.3579228515625,8.700303077697754,3.9332022666931152,0.4301098585128784
1772883329865519900,2.374519775390625,8.469993591308594,3.8703906536102295,0.1537388563156128
1772883329882130400,2.39113037109375,8.186444282531738,3.8602211475372314,-0.12681959569454193
1772883329898733600,2.407733642578125,7.824530124664307,3.9529430866241455,-0.25304099917411804
1772883329915364900,2.42436474609375,7.490731239318848,4.141377925872803,-0.3122633695602417
1772883329931945500,2.440945556640625,7.259225845336914,4.319045066833496,-0.09930214285850525
1772883329948550000,2.4575498046875,7.223931789398193,4.512265205383301,0.18484555184841156
1772883329965161200,2.4741611328125,7.265805721282959,4.649852752685547,0.4247260093688965
1772883329981761800,2.49076171875,7.428517818450928,4.7264227867126465,0.6442674994468689
1772883329998365200,2.507365234375,7.8693952560424805,4.701896667480469,0.698704183101654
1772883330014971000,2.523970947265625,8.210372924804688,4.638486862182617,0.6819544434547424
1772883330031576800,2.540576904296875,8.310273170471191,4.612165451049805,0.542572557926178
1772883330048177000,2.557177001953125,8.160721778869629,4.636094093322754,0.3858426511287689
1772883330064786400,2.573786376953125,7.976474285125732,4.734797954559326,0.31106695532798767
1772883330081393000,2.590392822265625,8.02373218536377,4.787439823150635,0.363709032535553
1772883330097983700,2.606983642578125,8.473583221435547,4.820341110229492,0.5000999569892883
1772883330114588000,2.623587890625,8.861818313598633,4.813760757446289,0.5940182209014893
1772883330131204400,2.640204345703125,8.952746391296387,4.867001056671143,0.698704183101654
1772883330147801600,2.656801513671875,8.806783676147461,5.045266628265381,0.9068797826766968
1772883330164405000,2.673405029296875,8.748757362365723,5.1343994140625,1.012762188911438
1772883330181011200,2.69001123046875,8.933603286743164,5.222933769226074,1.0217353105545044
1772883330197617700,2.70661767578125,9.071788787841797,5.2390851974487305,0.9924231767654419
1772883330214236700,2.723236572265625,9.109476089477539,5.258227825164795,0.9924231767654419
1772883330230833200,2.739833251953125,9.221938133239746,5.3557353019714355,0.8967102766036987
1772883330247445000,2.756445068359375,9.392427444458008,5.3832526206970215,0.7190431952476501
1772883330264061700,2.773061767578125,9.641879081726074,5.258825778961182,0.4540380835533142
1772883330280648700,2.789648681640625,9.78963565826416,5.247459888458252,0.2709871530532837
1772883330297261000,2.806260986328125,9.732806205749512,5.227719306945801,0.30987054109573364
1772883330313866200,2.8228662109375,9.947562217712402,5.0327043533325195,0.4408775866031647
1772883330330473000,2.839472900390625,10.682756423950195,4.689334392547607,0.6496513485908508
1772883330347070200,2.8560703125,11.209775924682617,4.2245283126831055,0.877567708492279
1772883330363688400,2.8726884765625,11.145768165588379,3.8919260501861572,1.0618150234222412
1772883330380288800,2.889288818359375,10.679765701293945,3.7196428775787354,1.048654556274414
1772883330396896000,2.90589599609375,10.042078018188477,3.5030922889709473,0.9505487680435181
1772883330413497300,2.922497314453125,9.670592308044434,3.3332018852233887,0.7214360237121582
1772883330430105300,2.939105224609375,9.405587196350098,3.126222848892212,0.5736792087554932
1772883330446694400,2.9556943359375,9.125627517700195,2.933002471923828,0.4013960063457489
1772883330463315700,2.972315673828125,8.700303077697754,2.8390841484069824,0.21176479756832123
1772883330479922200,2.988922119140625,8.200801849365234,2.864208698272705,-0.048454657196998596
1772883330496525300,3.005525390625,7.618149280548096,2.974876642227173,-0.2548356056213379
1772883330513130200,3.022130126953125,7.308278560638428,3.1585259437561035,-0.34695929288864136
1772883330529737000,3.038737060546875,7.463811874389648,3.269792079925537,-0.2991028428077698
1772883330546344400,3.055344482421875,8.059624671936035,3.232105255126953,-0.12143574655056
1772883330562948900,3.071948974609375,8.695517539978027,3.290131092071533,0.04307080805301666
1772883330579536000,3.088535888671875,8.866005897521973,3.397209882736206,0.05742774158716202
1772883330596155000,3.10515478515625,8.814560890197754,3.559921979904175,-0.013160524889826775
1772883330612749800,3.121749755859375,8.83669376373291,3.6747772693634033,-0.0077766734175384045
1772883330629354800,3.138354736328125,8.976076126098633,3.6849467754364014,0.1256231814622879
1772883330645961000,3.1549609375,9.471389770507812,3.6358940601348877,0.34277185797691345
1772883330662566000,3.17156591796875,10.111470222473145,3.5258240699768066,0.5868397355079651
1772883330679161600,3.18816162109375,10.554142951965332,3.442673683166504,0.7890332937240601
1772883330695775700,3.204775634765625,10.468599319458008,3.4229328632354736,0.760917603969574
1772883330712398600,3.221398681640625,9.772287368774414,3.4881372451782227,0.6221339106559753
1772883330729002500,3.23800244140625,8.916853904724121,3.5910286903381348,0.388235479593277
1772883330745598700,3.2545986328125,8.157731056213379,3.7507495880126953,0.34576287865638733
1772883330762195200,3.2711953125,7.890930652618408,3.9158542156219482,0.2913261651992798
1772883330778817000,3.287817138671875,7.8664045333862305,3.9631125926971436,0.3206382393836975
1772883330795422200,3.304422119140625,7.856832981109619,3.9493536949157715,0.24885354936122894
1772883330812028000,3.32102783203125,7.754539966583252,4.034897327423096,0.19740787148475647
1772883330828632800,3.3376328125,7.718647480010986,4.11625337600708,0.14057832956314087
1772883330845218800,3.35421875,7.7114691734313965,4.231108665466309,0.10827522724866867
1772883330861826000,3.370825927734375,7.8382887840271,4.371088981628418,0.12263216078281403
1772883330878434300,3.387434326171875,8.0955171585083,4.473979949951172,0.2225325107574463
1772883330895058400,3.404058349609375,8.333602905273438,4.557130813598633,0.2841476798057556
1772883330911655700,3.42065576171875,8.548956871032715,4.587639331817627,0.3403790295124054
1772883330928269000,3.43726904296875,8.7445707321167,4.655834674835205,0.4498506486415863
1772883330944867600,3.45386767578125,8.882157325744629,4.765904426574707,0.6604190468788147
1772883330961478000,3.470477783203125,8.894720077514648,4.884947299957275,0.6993024349212646
1772883330978064100,3.487064208984375,8.739784240722656,4.927420139312744,0.5904290080070496
1772883330994686500,3.5036865234375,8.551948547363281,4.964509010314941,0.4863412082195282
1772883331011291000,3.520290771484375,8.526823043823242,5.026721954345703,0.47258245944976807
1772883331027896800,3.536896728515625,8.603992462158203,4.993820667266846,0.5006981492042542
1772883331044502000,3.553501953125,8.6907320022583,4.994419097900391,0.5288137793540955
1772883331061107200,3.570107177734375,8.714659690856934,4.961517810821533,0.5048855543136597
1772883331077695500,3.586695556640625,8.748159408569336,4.934000492095947,0.4133601188659668
1772883331094304800,3.6033046875,8.86361312866211,5.108676433563232,0.24227328598499298
1772883331110909400,3.619909423828125,8.915059089660645,5.190032482147217,0.2949153780937195
1772883331127515100,3.63651513671875,9.353543281555176,5.271986484527588,0.26919254660606384
1772883331144120600,3.65312060546875,9.613762855529785,5.389832973480225,0.18723836541175842
1772883331160715000,3.669715087890625,9.351150512695312,5.386841773986816,0.23629122972488403
1772883331177330700,3.68633056640625,9.21715259552002,5.436492919921875,0.3858426511287689
1772883331193939700,3.702939697265625,9.479166984558105,5.30847692489624,0.5892325639724731
1772883331210556000,3.719555908203125,9.957133293151855,4.942973613739014,0.875174880027771
1772883331227160800,3.736160888671875,10.327422142028809,4.395017147064209,1.079761266708374
1772883331243765500,3.752765625,10.284950256347656,3.867997884750366,1.1048858165740967
1772883331260349700,3.769349609375,9.919445991516113,3.415156126022339,0.9649057388305664
1772883331276973800,3.785973876953125,9.391828536987305,3.1764719486236572,0.7746763229370117
1772883331293580800,3.802580810546875,8.883952140808105,3.1441688537597656,0.5862415432929993
1772883331310189000,3.81918896484375,8.416155815124512,3.2787652015686035,0.45104706287384033
1772883331326793000,3.83579296875,8.072785377502441,3.466601848602295,0.46360939741134644
1772883331343397600,3.852397705078125,7.9591264724731445,3.726821184158325,0.6478567123413086
1772883331360003000,3.869003173828125,8.056633949279785,3.9744784832000732,0.9218349456787109
1772883331376594000,3.885593994140625,8.294121742248535,4.175475597381592,1.2329018115997314
1772883331393214000,3.9022138671875,8.255836486816406,4.310669898986816,1.6504493951797485
1772883331409819400,3.9188193359375,8.222336769104004,4.418346881866455,1.923829436302185
1772883331426424800,3.9354248046875,8.503493309020996,4.478765964508057,1.8939191102981567
1772883331443029800,3.95202978515625,9.007781028747559,4.29033088684082,1.6223337650299072
1772883331459635000,3.968635009765625,9.484550476074219,4.029513359069824,1.3926228284835815
1772883331476240100,3.985240234375,9.783055305480957,3.848257064819336,1.1264212131500244
1772883331492846300,4.001846435546875,9.524032592773438,3.7806596755981445,0.8261220455169678
1772883331509451300,4.018451171875,8.918049812316895,3.820141315460205,0.44745782017707825
1772883331526056200,4.03505615234375,8.224729537963867,3.934398651123047,0.1698904037475586
1772883331542661600,4.05166162109375,7.723433494567871,4.102494239807129,0.04486542567610741
1772883331559251000,4.0682509765625,7.299305438995361,4.246662139892578,0.0005982056609354913
1772883331575859000,4.08485888671875,7.014559745788574,4.387240409851074,0.026919255033135414
1772883331592452400,4.101452392578125,6.9930243492126465,4.5391845703125,0.08554340898990631
1772883331609069300,4.1180693359375,7.076773166656494,4.687539577484131,0.1866401731967926
1772883331625675300,4.13467529296875,7.319046497344971,4.790431022644043,0.24825534224510193
1772883331642280200,4.1512802734375,7.442276477813721,4.872983455657959,0.2626122832298279
1772883331658885600,4.1678857421875,7.5272216796875,4.902893543243408,0.20458634197711945
1772883331675490800,4.18449072265625,7.651050567626953,4.956133842468262,0.28594231605529785
1772883331692134700,4.201134765625,7.957331657409668,5.006382942199707,0.4181457459926605
1772883331708715000,4.217715087890625,8.196614265441895,4.995017051696777,0.41216370463371277
1772883331725321000,4.234321044921875,8.210970878601074,4.944169998168945,0.18723836541175842
1772883331741925600,4.250925537109375,8.120641708374023,4.8436713218688965,0.05742774158716202
1772883331758519000,4.26751904296875,8.250452041625977,4.83051061630249,0.08554340898990631
1772883331775136300,4.28413623046875,8.361120223999023,4.873581409454346,0.25244277715682983
1772883331791725300,4.300725341796875,8.418548583984375,4.855037212371826,0.26141586899757385
1772883331808348000,4.317347900390625,8.408378601074219,4.869992256164551,0.15194423496723175
1772883331824953000,4.333953125,8.335397720336914,4.916652202606201,0.1621137410402298
1772883331841557500,4.3505576171875,8.314460754394531,5.031507968902588,0.17288143932819366
1772883331858163000,4.367162841796875,8.297710418701172,5.122435092926025,0.1256231814622879
1772883331874768400,4.383768310546875,8.300702095031738,5.200201988220215,0.03529413416981697
1772883331891355600,4.400355712890625,8.425726890563965,5.13021183013916,-0.03768695518374443
1772883331907980000,4.41697998046875,8.58066177368164,5.008177757263184,-0.1495514214038849
1772883331924585000,4.4335849609375,8.668000221252441,4.936991214752197,-0.11246266216039658
1772883331941190000,4.45018994140625,8.703892707824707,5.066802024841309,-0.11126625537872314
1772883331957795600,4.466795654296875,8.950352668762207,5.151747226715088,-0.2602194547653198
1772883331974400800,4.48340087890625,9.240483283996582,4.978267669677734,-0.28235307335853577
1772883331991005700,4.500005615234375,9.478569030761719,5.075775146484375,-0.16809579730033875
1772883332007594800,4.5165947265625,9.518648147583008,5.285147190093994,-0.008973085321485996
1772883332024216800,4.533216796875,9.53659439086914,5.459823131561279,0.3170489966869354
1772883332040822300,4.549822265625,9.793225288391113,5.670989513397217,0.6089733839035034
1772883332057410000,4.56641015625,10.402796745300293,5.501099109649658,1.1353943347930908
1772883332074019300,4.583019287109375,11.32941722869873,4.994419097900391,1.6522440910339355
1772883332090624300,4.599624267578125,12.008978843688965,4.353142738342285,2.007578134536743
1772883332107229700,4.616229736328125,12.087343215942383,3.7561333179473877,1.9543378353118896
1772883332123835100,4.632835205078125,11.384451866149902,3.3020951747894287,1.5104693174362183
1772883332140440800,4.64944091796875,10.051650047302246,3.198007345199585,0.828514814376831
1772883332157046000,4.6660458984375,8.881559371948242,3.1800613403320312,0.2991028428077698
1772883332173651200,4.682651123046875,8.207980155944824,3.2709884643554688,0.007178467698395252
1772883332190273500,4.6992734375,8.052446365356445,3.3278181552886963,-0.13998012244701385
1772883332206860000,4.715860107421875,8.043473243713379,3.3367912769317627,-0.08195417374372482
1772883332223481600,4.732481689453125,8.0291166305542,3.3409786224365234,-0.03409772366285324
1772883332240086000,4.7490859375,8.004590034484863,3.383451223373413,-0.03349951654672623
1772883332256692000,4.76569189453125,8.026723861694336,3.4606196880340576,-0.014356935396790504
1772883332273296600,4.782296630859375,8.160123825073242,3.528217077255249,0.019142581149935722
1772883332289902000,4.798902099609375,8.383254051208496,3.6125640869140625,0.01375873014330864
1772883332306478800,4.815478759765625,8.608179092407227,3.6430723667144775,0.0891326442360878
1772883332323090000,4.83208984375,9.063413619995117,3.6185460090637207,0.17706887423992157
1772883332339704300,4.848704345703125,9.361918449401855,3.5635111331939697,0.2709871530532837
1772883332356309200,4.865309326171875,9.433703422546387,3.586841106414795,0.380458801984787
1772883332372916000,4.881916015625,9.562317848205566,3.6735808849334717,0.5288137793540955
1772883332389517300,4.898517333984375,9.402596473693848,3.7818562984466553,0.5210371017456055
1772883332406114300,4.9151142578125,9.011369705200195,3.9314076900482178,0.4618147611618042
1772883332422734600,4.931734619140625,8.583653450012207,4.050450325012207,0.5132604837417603
1772883332439351000,4.94835107421875,8.270791053771973,4.180261135101318,0.6113662123680115
1772883332455955500,4.96495556640625,8.160721778869629,4.18863582611084,0.6119644045829773
1772883332472561000,4.981560791015625,8.170292854309082,4.095315933227539,0.3577269911766052
1772883332489166300,4.998166259765625,8.036892890930176,4.004388809204102,0.17647066712379456
1772883332505756000,5.014755859375,7.858029365539551,4.074378967285156,0.12023933976888657
1772883332522377700,5.031377685546875,7.70249605178833,4.211966037750244,0.11246266216039658
1772883332538982400,5.047982421875,7.537391185760498,4.3483567237854,0.16271193325519562
1772883332555587600,5.064587646484375,7.444071292877197,4.47697114944458,0.12083754688501358
1772883332572193000,5.081193115234375,7.475776195526123,4.600799560546875,0.2027917206287384
1772883332588798200,5.097798095703125,7.623532772064209,4.645665168762207,0.24047867953777313
1772883332605388500,5.114388427734375,8.025527000427246,4.668396949768066,0.3248256742954254
1772883332622009900,5.131009765625,8.466404914855957,4.658227443695068,0.37447673082351685
1772883332638614500,5.147614501953125,8.718249320983887,4.7796630859375,0.4504488706588745
1772883332655219700,5.1642197265625,8.788239479064941,4.908875465393066,0.5515456199645996
1772883332671825200,5.1808251953125,8.804988861083984,5.066203594207764,0.6675975322723389
1772883332688430300,5.197430419921875,8.823533058166504,5.170291423797607,0.8644071817398071
1772883332705053400,5.214053466796875,8.980263710021973,5.266602516174316,0.9690931439399719
1772883332721642000,5.23064208984375,9.181859016418457,5.221138954162598,0.9631111025810242
1772883332738247200,5.2472470703125,9.382257461547852,5.233701229095459,0.8709874153137207
1772883332754851800,5.263851806640625,9.401998519897461,5.44845724105835,0.8967102766036987
1772883332771457300,5.280457275390625,9.199206352233887,5.574678421020508,1.0037890672683716
1772883332788062500,5.2970625,9.186046600341797,5.719444274902344,0.8901300430297852
1772883332804647000,5.31364697265625,9.131011009216309,5.759523868560791,0.5653043389320374
1772883332821252400,5.33025244140625,8.861220359802246,5.791827201843262,0.37148571014404297
1772883332837862000,5.34686181640625,8.706883430480957,5.650052547454834,0.5335994362831116
1772883332854474200,5.36347412109375,8.93240737915039,5.279763221740723,1.0462616682052612
1772883332871075800,5.380075927734375,9.527023315429688,4.7958149909973145,1.3070793151855469
1772883332887681300,5.396681396484375,9.993025779724121,4.240679740905762,1.3962119817733765
1772883332904286700,5.41328662109375,10.03011417388916,3.7674992084503174,1.3256237506866455
1772883332920909300,5.429909423828125,9.646066665649414,3.4923245906829834,1.1150553226470947
1772883332937510700,5.4465107421875,8.83071231842041,3.524029493331909,0.8901300430297852
1772883332954116900,5.463116943359375,8.052446365356445,3.683152198791504,0.867398202419281
1772883332970721500,5.479721435546875,7.794619560241699,3.9188451766967773,0.9326026439666748
1772883332987327000,5.496326904296875,8.042875289916992,3.988237142562866,1.012762188911438
1772883333003916300,5.512916259765625,8.33300495147705,4.12343168258667,1.1988041400909424
1772883333020534300,5.5295341796875,8.385048866271973,4.251447677612305,1.4578272104263306
1772883333037154000,5.546154052734375,8.249256134033203,4.411168575286865,1.6606189012527466
1772883333053749200,5.562749267578125,8.074580192565918,4.561318397521973,1.734796404838562
1772883333070353700,5.579353759765625,8.0350980758667,4.596014022827148,1.591825246810913
1772883333086959400,5.59595947265625,8.394619941711426,4.47697114944458,1.3830515146255493
1772883333103564500,5.612564453125,9.004789352416992,4.2933220863342285,1.215553879737854
1772883333120166100,5.629166259765625,9.367302894592285,4.082753658294678,1.144965648651123
1772883333136779800,5.64577978515625,9.433703422546387,4.027718544006348,0.9337990283966064
1772883333153381400,5.66238134765625,8.94257640838623,4.082753658294678,0.5874379873275757
1772883333169985800,5.67898583984375,8.15234661102295,4.240081787109375,0.1866401731967926
1772883333186591500,5.695591552734375,7.495516777038574,4.46979284286499,-0.08973085135221481
1772883333203163100,5.7121630859375,7.113861560821533,4.675575256347656,-0.038285162299871445
1772883333219799600,5.728799560546875,7.131807804107666,4.835894584655762,0.2925225794315338
1772883333236411000,5.745410888671875,7.476972579956055,4.904688358306885,0.5353940725326538
1772883333253013500,5.762013427734375,7.693522930145264,4.877170562744141,0.6580262184143066
1772883333269618000,5.778617919921875,7.759923934936523,4.859822750091553,0.4995017349720001
1772883333286224100,5.79522412109375,7.715656757354736,4.82751989364624,0.2799602448940277
1772883333302812000,5.81181201171875,7.671389579772949,4.824528694152832,0.040677983313798904
1772883333319420700,5.828420654296875,7.612765312194824,4.862813949584961,-0.030508488416671753
1772883333336026000,5.845026123046875,7.606783390045166,4.934000492095947,-0.005982056725770235
1772883333352621000,5.86162109375,7.696514129638672,4.992624282836914,0.02751746028661728
1772883333369236700,5.87823681640625,7.865208148956299,4.955535888671875,0.08853443711996078
1772883333385842000,5.894842041015625,8.153543472290039,4.896313190460205,0.11545369029045105
1772883333402434600,5.9114345703125,8.412566184997559,4.902893543243408,0.19980068504810333
1772883333419070000,5.928070068359375,8.483154296875,4.975276470184326,0.2667997181415558
1772883333435672000,5.944672119140625,8.324031829833984,5.073382377624512,0.3403790295124054
1772883333452277800,5.96127783203125,8.21695327758789,5.191826820373535,0.355932354927063
1772883333468867600,5.97786767578125,8.286943435668945,5.278566837310791,0.37088751792907715
1772883333485487900,5.99448779296875,8.419146537780762,5.375475883483887,0.3900300860404968
1772883333502078700,6.01107861328125,8.489734649658203,5.4526448249816895,0.4091726839542389
1772883333518699000,6.027698974609375,8.331808090209961,5.474180221557617,0.49651068449020386
1772883333535304700,6.0443046875,8.414958953857422,5.426323413848877,0.5958128571510315
1772883333551909400,6.060909423828125,8.897112846374512,5.493322372436523,0.6556333899497986
1772883333568498200,6.077498291015625,9.327820777893066,5.526223659515381,0.7208378314971924
1772883333585120000,6.0941201171875,9.487542152404785,5.431707382202148,0.7860422134399414
1772883333601709000,6.110708984375,9.470193862915039,5.528616905212402,0.600000262260437
1772883333618331600,6.12733154296875,9.440881729125977,5.55733060836792,0.5383850932121277
1772883333634936000,6.14393603515625,9.681360244750977,5.432305812835693,0.37806597352027893
1772883333651542300,6.160542236328125,9.943374633789062,5.224728107452393,0.3655036687850952
1772883333668147000,6.17714697265625,10.28315544128418,4.842474937438965,0.6909275650978088
1772883333684752600,6.193752685546875,10.664212226867676,4.3172502517700195,1.0821540355682373
1772883333701342200,6.21034228515625,10.889137268066406,3.8213376998901367,1.196411371231079
1772883333717963500,6.226963623046875,10.651650428771973,3.418745279312134,0.9607182741165161
1772883333734568400,6.243568359375,10.075577735900879,3.1142587661743164,0.5312066078186035
1772883333751174100,6.260174072265625,9.376873970031738,2.956930637359619,0.11306086927652359
1772883333767775000,6.27677490234375,8.623732566833496,2.970689296722412,-0.19322042167186737
1772883333784367600,6.29336767578125,7.949554920196533,3.160320520401001,-0.28893333673477173
1772883333800964400,6.30996435546875,7.499105930328369,3.47019100189209,-0.18843477964401245
1772883333817582000,6.32658203125,7.4470624923706055,3.7082769870758057,-0.1333998590707779
1772883333834187500,6.3431875,7.724629878997803,3.7818562984466553,0.04247260093688965
1772883333850792400,6.35979248046875,7.8765740394592285,3.9158542156219482,0.2386840581893921
1772883333867398000,6.37639794921875,8.047062873840332,4.027120590209961,0.3008974492549896
1772883333884003000,6.393003173828125,8.135597229003906,4.110270977020264,0.21954147517681122
1772883333900596500,6.409596435546875,8.288139343261719,4.089334011077881,0.08434699475765228
1772883333917237500,6.426237548828125,8.668598175048828,3.964308977127075,0.08135596662759781
1772883333933833500,6.44283349609375,9.315258979797363,3.7262229919433594,0.15732808411121368
1772883333950416600,6.459416748046875,10.182058334350586,3.4707891941070557,0.3415754437446594
1772883333967028700,6.47602880859375,10.981261253356934,3.263211965560913,0.4983053207397461
1772883333983649000,6.49264892578125,11.08475112915039,3.116053342819214,0.4534398913383484
1772883334000238000,6.509238037109375,10.478768348693848,3.187838077545166,0.23748764395713806
1772883334016860700,6.525860595703125,9.473184585571289,3.459423303604126,0.21176479756832123
1772883334033465000,6.542465087890625,8.578269004821777,3.7974095344543457,0.4253242313861847
1772883334050070800,6.55907080078125,8.005785942077637,4.05703067779541,0.7172485589981079
1772883334066676000,6.575676025390625,7.894520282745361,4.169493675231934,0.8763712644577026
1772883334083281400,6.592281494140625,7.982456207275391,4.0935211181640625,0.8656035661697388
1772883334099865900,6.608865966796875,8.069195747375488,3.9906299114227295,0.7256234884262085
1772883334116496100,6.62549609375,8.13260555267334,3.9158542156219482,0.6101697683334351
1772883334133097200,6.64209716796875,8.09252643585205,3.9493536949157715,0.4911268353462219
1772883334149703200,6.658703125,7.927421569824219,4.07258415222168,0.49292147159576416
1772883334166280200,6.6752802734375,7.867002487182617,4.257429599761963,0.5665007829666138
1772883334182913800,6.691913818359375,7.961519241333008,4.381856441497803,0.7148557901382446
1772883334199489300,6.7084892578125,8.286344528198242,4.427918434143066,0.7567301392555237
1772883334216124400,6.72512451171875,8.539385795593262,4.445266246795654,0.7268198728561401
1772883334232729600,6.7417294921875,8.658429145812988,4.503890514373779,0.7692924737930298
1772883334249334800,6.758334716796875,8.7236328125,4.609174728393555,0.8656035661697388
1772883334265930000,6.774929931640625,8.8707914352417,4.710869789123535,0.9230313301086426
1772883334282532900,6.791532958984375,9.036494255065918,4.826921463012695,0.9942178130149841
1772883334299124500,6.80812451171875,9.059226989746094,4.917250633239746,1.0666006803512573
1772883334315743000,6.824742919921875,9.014959335327148,4.997410297393799,1.1252248287200928
1772883334332348200,6.84134814453125,9.192028045654297,5.004588603973389,1.119242787361145
1772883334348954000,6.8579541015625,9.403194427490234,4.925625324249268,1.0552347898483276
1772883334365559000,6.87455908203125,9.479764938354492,4.922036170959473,1.0163514614105225
1772883334382164500,6.89116455078125,9.352347373962402,5.031507968902588,0.9128618240356445
1772883334398761200,6.90776123046875,9.200403213500977,4.996811866760254,0.9182456731796265
1772883334415389400,6.924389404296875,9.180662155151367,4.996811866760254,0.8273184299468994
1772883334431994400,6.940994384765625,9.021539688110352,5.071587562561035,0.8817551732063293
1772883334448599600,6.957599609375,8.846863746643066,5.075775146484375,1.2891331911087036
1772883334465208000,6.9742080078125,8.779266357421875,5.023132801055908,1.7575281858444214
1772883334481810200,6.99081005859375,8.721240043640137,4.863411903381348,1.9627127647399902
1772883334498386400,7.007386474609375,9.025128364562988,4.455435752868652,1.9052850008010864
1772883334515021300,7.024021240234375,9.541379928588867,3.950550079345703,1.750349760055542
1772883334531626500,7.04062646484375,9.797411918640137,3.5461630821228027,1.755733609199524
1772883334548230400,7.05723046875,9.734002113342285,3.3266217708587646,1.6301103830337524
1772883334564838000,7.073837890625,9.413962364196777,3.205185890197754,1.3818551301956177
1772883334581443000,7.090443115234375,9.001798629760742,3.173480987548828,1.2167502641677856
1772883334598012400,7.107012451171875,8.740981101989746,3.3003005981445312,1.1808580160140991
1772883334614653700,7.12365380859375,8.568697929382324,3.6029927730560303,1.3465609550476074
1772883334631259000,7.1402587890625,8.287541389465332,3.862015724182129,1.5224334001541138
1772883334647864000,7.156864013671875,8.044670104980469,4.092923164367676,1.6211373805999756
1772883334664470000,7.173469970703125,8.066802978515625,4.222135543823242,1.688734531402588
1772883334681075000,7.190074951171875,7.917850017547607,4.323232173919678,1.95852530002594
1772883334697680000,7.206679931640625,8.077570915222168,4.304687976837158,2.124826431274414
1772883334714286300,7.223286376953125,8.650651931762695,4.110270977020264,2.1056840419769287
1772883334730891000,7.23989111328125,9.22851848602295,3.8494534492492676,1.94297194480896
1772883334747496400,7.256496337890625,9.585049629211426,3.635295867919922,1.7096717357635498
1772883334764071700,7.27307177734375,9.263813018798828,3.538984775543213,1.3663017749786377
1772883334780693500,7.289693603515625,8.492127418518066,3.7531423568725586,1.0612168312072754
1772883334797313800,7.306313720703125,7.791628837585449,4.043870449066162,0.8476574420928955
1772883334813904600,7.322904541015625,7.274778842926025,4.264009952545166,0.7322037220001221
1772883334830510000,7.339510009765625,7.239484786987305,4.322035789489746,0.6323033571243286
1772883334847115000,7.356114990234375,7.3052873611450195,4.3896331787109375,0.6376872062683105
1772883334863720400,7.372720458984375,7.316653251647949,4.566701889038086,0.6963114142417908
1772883334880323300,7.3893232421875,7.381857872009277,4.639683246612549,0.6340979933738708
1772883334896939300,7.405939208984375,7.710272789001465,4.673182487487793,0.4695914387702942
1772883334913550300,7.42255029296875,7.9968132972717285,4.644468784332275,0.25304099917411804
1772883334930155500,7.439155517578125,7.9657063484191895,4.707878589630127,0.07657032459974289
1772883334946761200,7.45576123046875,7.829914093017578,4.811367988586426,0.0729810893535614
1772883334963333400,7.47233349609375,7.827520847320557,4.968696117401123,0.20338992774486542
1772883334979977700,7.488977783203125,7.969295978546143,5.0979084968566895,0.3565305769443512
1772883334996562200,7.505562255859375,8.127222061157227,5.136792182922363,0.45643091201782227
1772883335013182500,7.522182373046875,8.22831916809082,5.151747226715088,0.5563312768936157
1772883335029788200,7.5387880859375,8.472386360168457,5.172684192657471,0.6317051649093628
1772883335046393000,7.55539306640625,8.725427627563477,5.209175109863281,0.625723123550415
1772883335062983200,7.571983154296875,8.806185722351074,5.224130153656006,0.6305087804794312
1772883335079609000,7.588609130859375,8.670990943908691,5.30847692489624,0.6843472719192505
1772883335096182300,7.605182373046875,8.656036376953125,5.346762180328369,0.6658028960227966
1772883335112815000,7.621815185546875,8.760722160339355,5.358128070831299,0.6125625967979431
1772883335129429000,7.638428955078125,8.858229637145996,5.272584915161133,0.6687939167022705
1772883335146023000,7.65502294921875,8.918049812316895,5.181657314300537,0.7393822073936462
1772883335162617000,7.6716171875,9.016754150390625,5.048257350921631,0.7950153350830078
1772883335179242500,7.688242431640625,9.281160354614258,4.941776752471924,0.6927221417427063
1772883335195862300,7.7048623046875,9.281160354614258,5.096712112426758,0.4450650215148926
1772883335212447700,7.72144775390625,9.049654960632324,4.932205677032471,0.397208571434021
1772883335229052700,7.738052734375,9.31585693359375,4.983651161193848,0.2907279431819916
1772883335245658000,7.754658203125,9.33739185333252,5.0943193435668945,0.28175488114356995
1772883335262242600,7.77124267578125,8.970691680908203,5.078765869140625,0.4654040038585663
1772883335278855200,7.787855224609375,9.448657989501953,5.173282623291016,0.6885347366333008
1772883335295449000,7.804448974609375,10.194621086120605,5.143372058868408,1.2197413444519043
1772883335312066000,7.821066162109375,10.633105278015137,4.890929698944092,1.6648063659667969
1772883335328671200,7.837671142578125,10.707880973815918,4.517050743103027,1.8340985774993896
1772883335345276700,7.854276611328125,10.521839141845703,4.210171222686768,1.703689694404602
1772883335361882000,7.870882080078125,10.207781791687012,3.965505361557007,1.3160524368286133
1772883335378475500,7.8874755859375,9.726823806762695,3.7148571014404297,0.9391828775405884
1772883335395129300,7.90412939453125,9.18724250793457,3.6095728874206543,0.7645068168640137
1772883335411712300,7.920712158203125,8.597412109375,3.6424741744995117,0.6915257573127747
1772883335428317200,7.937317138671875,7.957930088043213,3.737588882446289,0.48514479398727417
1772883335444923000,7.9539228515625,7.481758117675781,3.7633118629455566,0.19202402234077454
1772883335461512400,7.970512451171875,7.250252723693848,3.772883176803589,-0.06041877344250679
1772883335478121200,7.987121337890625,7.3746795654296875,3.6993038654327393,-0.2626122832298279
1772883335494732300,8.003732177734374,7.643273830413818,3.631108283996582,-0.3936193287372589
1772883335511326700,8.02032666015625,8.005785942077637,3.6460635662078857,-0.5485545992851257
1772883335527930600,8.0369306640625,8.403593063354492,3.6023945808410645,-0.5653043389320374
1772883335544540000,8.053539794921875,8.72064208984375,3.538984775543213,-0.5676971673965454
1772883335561150700,8.070150634765625,9.018548965454102,3.5120654106140137,-0.3930211067199707
1772883335577766000,8.086765869140624,9.273982048034668,3.5264222621917725,-0.04486542567610741
1772883335594373000,8.103373046875,9.5862455368042,3.589233875274658,0.2883351147174835
1772883335610977000,8.11997705078125,9.911669731140137,3.7046875953674316,0.6364908218383789
1772883335627581700,8.136581787109375,10.078569412231445,3.8285162448883057,0.914058268070221
1772883335644187400,8.1531875,9.798608779907227,3.9876389503479004,0.97926265001297
1772883335660765400,8.169765380859374,9.193822860717773,4.096512317657471,0.9786644577980042
1772883335677381600,8.186381591796875,8.622536659240723,4.213760852813721,1.054038405418396
1772883335693983000,8.20298291015625,8.205587387084961,4.303491592407227,1.2388839721679688
1772883335710613500,8.219613525390624,7.8454670906066895,4.403990268707275,1.3615161180496216
1772883335727214000,8.236214111328126,7.562515735626221,4.435096740722656,1.3058829307556152
1772883335743803000,8.252802978515625,7.2783684730529785,4.457230567932129,1.1306086778640747
1772883335760401400,8.2694013671875,7.2089762687683105,4.487739086151123,0.8249256014823914
1772883335777018400,8.286018310546876,7.198208808898926,4.4751763343811035,0.5910272002220154
1772883335793628400,8.30262841796875,7.147959232330322,4.570889472961426,0.5102694034576416
1772883335810228000,8.31922802734375,7.139584541320801,4.766502857208252,0.5790630578994751
1772883335826833200,8.335833251953124,7.454240798950195,4.88853645324707,0.6879364848136902
1772883335843438300,8.352438232421875,7.94716215133667,4.921437740325928,0.833898663520813
1772883335860030700,8.36903076171875,8.428717613220215,4.989633560180664,0.7645068168640137
1772883335876649200,8.385649169921875,8.518448829650879,4.97348165512085,0.5102694034576416
1772883335893272000,8.40227197265625,8.391629219055176,5.054239749908447,0.35892340540885925
1772883335909873700,8.418873779296876,8.36590576171875,5.196014404296875,0.5700899958610535
1772883335926478800,8.435478759765624,8.619544982910156,5.330012321472168,0.9379864931106567
1772883335943084300,8.452084228515625,8.94257640838623,5.25045108795166,1.1030912399291992
1772883335959676700,8.4686767578125,9.19980525970459,5.057230472564697,1.0666006803512573
1772883335976283000,8.485282958984374,9.467801094055176,4.999204635620117,0.9068797826766968
1772883335992893400,8.5018935546875,9.433703422546387,5.230112075805664,0.7369893789291382
1772883336009513700,8.518513671875,9.256634712219238,5.223531723022461,0.7184450030326843
1772883336026111200,8.535111328125,9.41755199432373,5.458028316497803,0.37028929591178894
1772883336042716700,8.551716552734375,9.30030345916748,5.590231895446777,0.4295116662979126
1772883336059305700,8.5683056640625,9.196215629577637,5.653043270111084,0.7794619798660278
1772883336075928300,8.58492822265625,9.421140670776367,5.551348686218262,1.212562918663025
1772883336092525300,8.601525390625,9.617352485656738,5.116453170776367,1.4428720474243164
1772883336109146600,8.618146728515624,9.790233612060547,4.545166492462158,1.2843475341796875
1772883336125743600,8.63474365234375,9.81236743927002,3.9846479892730713,0.8500502705574036
1772883336142348500,8.6513486328125,9.635896682739258,3.5503506660461426,0.4504488706588745
1772883336158939000,8.66793896484375,9.241081237792969,3.3092737197875977,0.1495514214038849
1772883336175545000,8.684545166015624,8.784649848937988,3.363112211227417,-0.05802594870328903
1772883336192160300,8.70116015625,8.394021987915039,3.5168511867523193,-0.06400800496339798
1772883336208776400,8.7177763671875,8.189435958862305,3.7435710430145264,0.03469592705368996
1772883336225374700,8.734374755859376,8.045866012573242,4.037888050079346,0.17168502509593964
1772883336241964300,8.75096435546875,7.850851058959961,4.310669898986816,0.4660021960735321
1772883336258569700,8.76756982421875,7.81555700302124,4.565505504608154,0.8703892230987549
1772883336275178800,8.7841787109375,7.803592681884766,4.8299126625061035,1.3316057920455933
1772883336291784400,8.800784423828125,7.791628837585449,5.048257350921631,1.5337992906570435
1772883336308389600,8.8173896484375,8.209176063537598,4.924428939819336,1.4063814878463745
1772883336324995000,8.8339951171875,8.846863746643066,4.5684967041015625,1.2993026971817017
1772883336341600300,8.850600341796875,9.284749984741211,4.322634220123291,0.9032905697822571
1772883336358205700,8.867205810546874,9.520442962646484,4.05703067779541,0.35473597049713135
1772883336374814500,8.883814453125,9.308079719543457,3.930809497833252,-0.2667997181415558
1772883336391426600,8.900426513671874,8.648857116699219,4.00319242477417,-0.6454638838768005
1772883336408040200,8.917040283203125,8.140382766723633,4.24785852432251,-0.841675341129303
1772883336424643600,8.9336435546875,7.908278942108154,4.3657050132751465,-0.9254241585731506
1772883336441246200,8.95024609375,7.883752346038818,4.422534465789795,-0.8482556343078613
1772883336457836000,8.9668359375,7.954938888549805,4.479962348937988,-0.7668996453285217
1772883336474457600,8.98345751953125,8.054839134216309,4.556532382965088,-0.6616154313087463
1772883336491062300,9.000062255859374,8.081758499145508,4.638486862182617,-0.646660327911377
1772883336507669000,9.0166689453125,8.108677864074707,4.743771076202393,-0.6029912829399109
1772883336524273200,9.033273193359374,8.059026718139648,4.852644443511963,-0.5688936114311218
1772883336540878600,9.049878662109375,8.029714584350586,4.904688358306885,-0.5587241053581238
1772883336557467600,9.066467529296874,8.134998321533203,4.859224796295166,-0.6693921089172363
1772883336574089500,9.08308935546875,8.135597229003906,4.779065132141113,-0.8327022790908813
1772883336590693000,9.099693115234375,8.21874713897705,4.622933387756348,-0.96370929479599
1772883336607302400,9.116302490234375,8.487939834594727,4.572684288024902,-0.8889335989952087
1772883336623909400,9.132909423828124,8.962915420532227,4.5391845703125,-0.8009973764419556
1772883336640511000,9.149510986328124,9.382855415344238,4.347758769989014,-0.857228696346283
1772883336657118500,9.166118408203126,9.369695663452148,4.234099864959717,-1.0013962984085083
1772883336673721900,9.182721923828124,9.153144836425781,4.321437835693359,-0.8799605369567871
1772883336690328600,9.19932861328125,9.173483848571777,4.386044025421143,-0.5784648656845093
1772883336706932200,9.21593212890625,9.312865257263184,4.363312244415283,-0.5126622319221497
1772883336723521000,9.23252099609375,9.305686950683594,4.496711730957031,-0.4731806814670563
1772883336740129800,9.2491298828125,9.117252349853516,4.618745803833008,-0.41874396800994873
1772883336756739300,9.2657392578125,8.974281311035156,4.832305431365967,-0.4019941985607147
1772883336773341000,9.2823408203125,8.773882865905762,5.050650596618652,-0.42771705985069275
1772883336789946400,9.2989462890625,9.525228500366211,4.8233323097229,-0.3332005441188812
1772883336806551800,9.3155517578125,10.14437198638916,4.65523624420166,-0.5676971673965454
