time,seconds_elapsed,z,y,x
1772883327640392200,0.14939208984375,-0.26190847158432007,-0.1739438772201538,-0.42012256383895874
1772883327656999200,0.165999267578125,-0.3407101035118103,-0.33796119689941406,-0.3000875413417816
1772883327673616400,0.182616455078125,-0.3674354553222656,-0.4132503271102905,-0.166460782289505
1772883327690218000,0.199218017578125,-0.3425426781177521,-0.4560109078884125,-0.12079860270023346
1772883327706826500,0.215826416015625,-0.32391130924224854,-0.47907108068466187,-0.13988813757896423
1772883327723428600,0.2324287109375,-0.3165809214115143,-0.45631635189056396,-0.18448130786418915
1772883327740033500,0.249033447265625,-0.32971450686454773,-0.4421137273311615,-0.2116648107767105
1772883327756655400,0.2656552734375,-0.40683624148368835,-0.5007568001747131,-0.19578230381011963
1772883327773258200,0.28225830078125,-0.485027015209198,-0.5574145317077637,-0.10980302840471268
1772883327789864400,0.298864501953125,-0.5264131426811218,-0.6542366743087769,0.031154127791523933
1772883327806466600,0.315466552734375,-0.55069500207901,-0.765566885471344,0.16584990918636322
1772883327823074600,0.332074462890625,-0.593302845954895,-0.9161451458930969,0.19394971430301666
1772883327839677200,0.34867724609375,-0.6218608021736145,-0.9831876158714294,0.16065755486488342
1772883327856279300,0.365279296875,-0.6301075220108032,-0.978606104850769,0.13790282607078552
1772883327872893000,0.381892822265625,-0.5971207618713379,-0.8171849846839905,0.13041973114013672
1772883327889495600,0.39849560546875,-0.4873177409172058,-0.38896843791007996,0.12522737681865692
1772883327906099200,0.41509912109375,-0.3335324227809906,0.027183502912521362,0.05207626149058342
1772883327922705400,0.431705322265625,-0.24877487123012543,0.06963863968849182,-0.15622878074645996
1772883327939307500,0.4483076171875,-0.25732699036598206,-0.0913243517279625,-0.37659841775894165
1772883327955922200,0.464922119140625,-0.33047810196876526,-0.20097467303276062,-0.4495968222618103
1772883327972521200,0.481521240234375,-0.41813725233078003,-0.1918116807937622,-0.3773620128631592
1772883327989128200,0.498128173828125,-0.4717406928539276,-0.008704829961061478,-0.2623666226863861
1772883328005729800,0.514729736328125,-0.4651738703250885,0.2580905556678772,-0.12431107461452484
1772883328022337300,0.531337158203125,-0.3825543522834778,0.6239988207817078,0.05726861581206322
1772883328039002000,0.548002197265625,-0.2454151064157486,0.8619308471679688,0.21242839097976685
1772883328055546600,0.564546630859375,-0.11362093687057495,0.8177958726882935,0.3072652220726013
1772883328072159700,0.58115966796875,-0.010690141469240189,0.5694791078567505,0.4193589985370636
1772883328088757500,0.597757568359375,0.023518312722444534,0.22586742043495178,0.547182559967041
1772883328105369600,0.61436962890625,-0.007788531947880983,-0.16523905098438263,0.651029646396637
1772883328121973500,0.630973388671875,-0.128434419631958,-0.4155410826206207,0.6696610450744629
1772883328138557700,0.6475576171875,-0.2554943859577179,-0.49067750573158264,0.5586362481117249
1772883328155162000,0.664162109375,-0.3286454975605011,-0.40591996908187866,0.38637226819992065
1772883328171777000,0.680777099609375,-0.3623957931995392,-0.26251932978630066,0.23335053026676178
1772883328188371000,0.697370849609375,-0.34758231043815613,-0.12751811742782593,0.07620543986558914
1772883328204981000,0.71398095703125,-0.3318525552749634,-0.007635815534740686,-0.03894266113638878
1772883328221586400,0.73058642578125,-0.3510948121547699,0.1820378452539444,-0.05742133408784866
1772883328238239700,0.74723974609375,-0.36880987882614136,0.3390302062034607,-0.059406645596027374
1772883328254818000,0.763818115234375,-0.37110063433647156,0.4053090810775757,-0.06582073122262955
1772883328271407900,0.780407958984375,-0.3364340364933014,0.40943244099617004,-0.06643159687519073
1772883328288020700,0.797020751953125,-0.2730567753314972,0.29504790902137756,-0.08414668589830399
1772883328304624000,0.8136240234375,-0.18707747757434845,0.08032877743244171,-0.10323622822761536
1772883328321228800,0.830228759765625,-0.09315694868564606,-0.0507018156349659,-0.08414668589830399
1772883328337838800,0.8468388671875,-0.030085112899541855,-0.1258382350206375,-0.03726277872920036
1772883328354441500,0.86344140625,-0.004734205547720194,-0.18387043476104736,-0.005039638374000788
1772883328371058000,0.880057861328125,0.017562376335263252,-0.22403483092784882,-0.007788531947880983
1772883328387643000,0.896642822265625,0.04902193695306778,-0.17027868330478668,-0.03680463135242462
1772883328404256800,0.9132568359375,0.07925976812839508,-0.08735372871160507,-0.08338310569524765
1772883328420864500,0.929864501953125,0.10125091671943665,-0.04657847434282303,-0.11010845750570297
1772883328437468400,0.946468505859375,0.1264491081237793,-0.07559457421302795,-0.08521570265293121
1772883328454075100,0.9630751953125,0.16019940376281738,-0.1319468915462494,-0.0685696229338646
1772883328470677500,0.979677490234375,0.18829920887947083,-0.1849394589662552,-0.08689557760953903
1772883328487283700,0.99628369140625,0.20005837082862854,-0.1716531366109848,-0.11774427443742752
1772883328503888100,1.01288818359375,0.20341812074184418,-0.12828169763088226,-0.14263702929019928
1772883328520496000,1.02949609375,0.20295998454093933,-0.03145955875515938,-0.1463022232055664
1772883328537099800,1.046099853515625,0.21502456068992615,0.07147123664617538,-0.10812314599752426
1772883328553700400,1.062700439453125,0.2376265823841095,0.09834930300712585,-0.02687807008624077
1772883328570313000,1.07931298828125,0.2515237629413605,0.06291911751031876,0.05192354694008827
1772883328586921000,1.0959208984375,0.2606867551803589,-0.043676864355802536,0.07895433157682419
1772883328603519700,1.112519775390625,0.24495697021484375,-0.0529925599694252,0.10567969083786011
1772883328620111000,1.129111083984375,0.23167064785957336,0.0006108652451075613,0.12370020896196365
1772883328636716500,1.145716552734375,0.23335053026676178,0.09636399149894714,0.0933096632361412
1772883328653326300,1.162326416015625,0.23518311977386475,0.1371392458677292,0.009621127508580685
1772883328669929500,1.178929443359375,0.2148718535900116,0.06475171446800232,-0.05192354694008827
1772883328686523400,1.1955234375,0.20983220636844635,0.03084869496524334,-0.020311269909143448
1772883328703142000,1.212141845703125,0.25854870676994324,0.12232576310634613,0.06261368840932846
1772883328719745300,1.228745361328125,0.3153591752052307,0.21838432550430298,0.07987063378095627
1772883328736366600,1.24536669921875,0.32360586524009705,0.17791450023651123,-0.020311269909143448
1772883328752970000,1.261969970703125,0.24434609711170197,0.04505131021142006,-0.18646661937236786
1772883328769575200,1.2785751953125,0.11026117950677872,-0.0507018156349659,-0.28038713335990906
1772883328786176800,1.2951767578125,-0.005497787147760391,-0.04535674303770065,-0.2893974184989929
1772883328802785300,1.311785400390625,-0.07131851464509964,0.04993823543190956,-0.24037547409534454
1772883328819391000,1.328390869140625,-0.10262536257505417,0.16172657907009125,-0.13118331134319305
1772883328835996200,1.34499609375,-0.07559457421302795,0.28817567229270935,0.05971207842230797
1772883328852599800,1.361599853515625,0.009773843921720982,0.3978259861469269,0.30772337317466736
1772883328869229000,1.37822900390625,0.1310305893421173,0.48579058051109314,0.5199990272521973
1772883328885811200,1.394811279296875,0.24037547409534454,0.489608496427536,0.6785185933113098
1772883328902400500,1.411400390625,0.2958115041255951,0.3695734739303589,0.7544185519218445
1772883328919023900,1.42802392578125,0.30283644795417786,0.1875356286764145,0.7457137703895569
1772883328935625700,1.444625732421875,0.294895201921463,0.08888089656829834,0.6989825367927551
1772883328952229600,1.461229736328125,0.2860376536846161,0.13316862285137177,0.6776022911071777
1772883328968845000,1.477844970703125,0.2765692472457886,0.17272214591503143,0.6356052756309509
1772883328985441800,1.49444189453125,0.2632829248905182,0.18539759516716003,0.5432119369506836
1772883329002057500,1.511057373046875,0.25335636734962463,0.14324790239334106,0.47510045766830444
1772883329018644000,1.52764404296875,0.24404066801071167,0.08536841720342636,0.4616613984107971
1772883329035277000,1.544277099609375,0.2399173229932785,0.020463986322283745,0.4531092941761017
1772883329051864300,1.5608642578125,0.2226603776216507,0.029626963660120964,0.4167627990245819
1772883329068469000,1.577468994140625,0.19394971430301666,0.1062905490398407,0.34406983852386475
1772883329085074000,1.594073974609375,0.1592831164598465,0.1670716404914856,0.25106561183929443
1772883329101680400,1.610680419921875,0.11056660860776901,0.17577648162841797,0.14798210561275482
1772883329118269400,1.62726953125,0.09560041129589081,0.1414152979850769,0.08811730891466141
1772883329134879700,1.643879638671875,0.11591167747974396,0.12538009881973267,0.14492778480052948
1772883329151482600,1.660482666015625,0.14523321390151978,0.16783522069454193,0.27290403842926025
1772883329168088600,1.677088623046875,0.16279558837413788,0.2194533348083496,0.37659841775894165
1772883329184692700,1.693692626953125,0.1310305893421173,0.20128010213375092,0.37827831506729126
1772883329201298400,1.71029833984375,0.07757988572120667,0.15485434234142303,0.29138273000717163
1772883329217908200,1.726908203125,0.06001751124858856,0.10384709388017654,0.1814269721508026
1772883329234492400,1.743492431640625,0.07864890247583389,0.06261368840932846,0.1160643994808197
1772883329251129000,1.760129150390625,0.09575312584638596,0.09911288321018219,0.09147707372903824
1772883329267732000,1.77673193359375,0.09865473955869675,0.10674870014190674,0.054367005825042725
1772883329284337200,1.793337158203125,0.09758572280406952,0.05268712714314461,0.01924225501716137
1772883329300944400,1.8099443359375,0.07528914511203766,-0.06429356336593628,-0.00045814894838258624
1772883329317548300,1.82654833984375,0.03955352306365967,-0.18814650177955627,-0.012675453908741474
1772883329334156800,1.84315673828125,0.0065668015740811825,-0.2525927722454071,-0.025045474991202354
1772883329350760700,1.8597607421875,-0.008399397134780884,-0.22678372263908386,0.0019853119738399982
1772883329367363600,1.876363525390625,-0.03405573591589928,-0.1892155110836029,0.02321287989616394
1772883329383968500,1.892968505859375,-0.04841107130050659,-0.18112154304981232,-0.015271631069481373
1772883329400559600,1.9095595703125,-0.06001751124858856,-0.23915374279022217,-0.07635815441608429
1772883329417176600,1.926176513671875,-0.09086620807647705,-0.3211624026298523,-0.12431107461452484
1772883329433769700,1.942769775390625,-0.14065171778202057,-0.39324450492858887,-0.11835514008998871
1772883329450392600,1.959392578125,-0.18448130786418915,-0.3623957931995392,-0.0633772686123848
1772883329466997500,1.97599755859375,-0.18005253374576569,-0.20525072515010834,-0.005497787147760391
1772883329483598800,1.992598876953125,-0.16523905098438263,-0.04581489413976669,0.05009094998240471
1772883329500228900,2.009228759765625,-0.16920967400074005,-0.05009094998240471,0.06169738993048668
1772883329516812300,2.025812255859375,-0.16279558837413788,-0.05604688450694084,0.06520986557006836
1772883329533416000,2.042416015625,-0.1569923609495163,-0.08704829961061478,0.08017606288194656
1772883329550020600,2.0590205078125,-0.17699819803237915,-0.17638733983039856,0.06673702597618103
1772883329566631400,2.07563134765625,-0.21624629199504852,-0.2863430976867676,-0.02367102913558483
1772883329583238400,2.09223828125,-0.28466320037841797,-0.3956879675388336,-0.2119702398777008
1772883329599827200,2.1088271484375,-0.3767511546611786,-0.41661009192466736,-0.43218716979026794
1772883329616432000,2.12543212890625,-0.4554000496864319,-0.26511552929878235,-0.5493205785751343
1772883329633039400,2.142039306640625,-0.4786129295825958,0.03084869496524334,-0.4888449013233185
1772883329649637600,2.1586376953125,-0.44058656692504883,0.27748554944992065,-0.318566232919693
1772883329666247700,2.17524755859375,-0.380721777677536,0.3617849349975586,-0.12476922571659088
1772883329682851300,2.191851318359375,-0.32589662075042725,0.27809640765190125,0.029932396486401558
1772883329699441000,2.20844091796875,-0.29474249482154846,0.0679587572813034,0.1443169116973877
1772883329716077800,2.225077880859375,-0.308792382478714,-0.19104810059070587,0.25931230187416077
1772883329732680200,2.24168017578125,-0.3182607889175415,-0.31932979822158813,0.3449861407279968
1772883329749262000,2.258261962890625,-0.3318525552749634,-0.3295617997646332,0.34834590554237366
1772883329765898500,2.2748984375,-0.3666718602180481,-0.3425426781177521,0.2588541507720947
1772883329782493700,2.29149365234375,-0.4158465266227722,-0.3116939961910248,0.09407325088977814
1772883329799104500,2.3081044921875,-0.45295658707618713,-0.15851953625679016,-0.07880161702632904
1772883329815706400,2.324706298828125,-0.46761733293533325,0.07651086896657944,-0.22189679741859436
1772883329832339000,2.3413388671875,-0.4389066696166992,0.24373523890972137,-0.30375275015830994
1772883329848923000,2.3579228515625,-0.3729332387447357,0.34345898032188416,-0.29657506942749023
1772883329865519900,2.374519775390625,-0.2926044464111328,0.3683517575263977,-0.2376265823841095
1772883329882130400,2.39113037109375,-0.19532416760921478,0.30894508957862854,-0.15806138515472412
1772883329898733600,2.407733642578125,-0.08903361111879349,0.2405281960964203,-0.078343465924263
1772883329915364900,2.42436474609375,0.010537425056099892,0.10690141469240189,-0.050243668258190155
1772883329931945500,2.440945556640625,0.10690141469240189,-0.027183502912521362,-0.07406741380691528
1772883329948550000,2.4575498046875,0.16539175808429718,-0.10720685124397278,-0.13026700913906097
1772883329965161200,2.4741611328125,0.18616119027137756,-0.1495092660188675,-0.1966986060142517
1772883329981761800,2.49076171875,0.18051068484783173,-0.17730364203453064,-0.2724458873271942
1772883329998365200,2.507365234375,0.15714508295059204,-0.2330450862646103,-0.31291571259498596
1772883330014971000,2.523970947265625,0.13790282607078552,-0.22449298202991486,-0.2866485118865967
1772883330031576800,2.540576904296875,0.14294247329235077,-0.11682797968387604,-0.24358251690864563
1772883330048177000,2.557177001953125,0.17470745742321014,-0.0032070425804704428,-0.21288654208183289
1772883330064786400,2.573786376953125,0.20799961686134338,0.015271631069481373,-0.22250767052173615
1772883330081393000,2.590392822265625,0.24007004499435425,-0.03497203439474106,-0.2889392673969269
1772883330097983700,2.606983642578125,0.2649627923965454,-0.0757472887635231,-0.31383201479911804
1772883330114588000,2.623587890625,0.2719877362251282,-0.08261952549219131,-0.2477058619260788
1772883330131204400,2.640204345703125,0.28527405858039856,-0.09743300825357437,-0.14248432219028473
1772883330147801600,2.656801513671875,0.2871066629886627,-0.06154467165470123,-0.06001751124858856
1772883330164405000,2.673405029296875,0.2632829248905182,-0.025503624230623245,-0.04489859566092491
1772883330181011200,2.69001123046875,0.23625212907791138,-0.012217304669320583,-0.044135015457868576
1772883330197617700,2.70661767578125,0.2102903574705124,0.04306599870324135,-0.01878410577774048
1772883330214236700,2.723236572265625,0.18280142545700073,0.06001751124858856,0.006108652334660292
1772883330230833200,2.739833251953125,0.14844025671482086,0.10216721147298813,0.023060163483023643
1772883330247445000,2.756445068359375,0.11316278576850891,0.16111570596694946,0.029626963660120964
1772883330264061700,2.773061767578125,0.09269879758358002,0.16783522069454193,0.03390302136540413
1772883330280648700,2.789648681640625,0.09285151958465576,0.16233743727207184,0.04153883829712868
1772883330297261000,2.806260986328125,0.08429940044879913,0.15271630883216858,-0.004734205547720194
1772883330313866200,2.8228662109375,0.07116580009460449,0.0659734457731247,-0.13148874044418335
1772883330330473000,2.839472900390625,0.05054909735918045,-0.06582073122262955,-0.2203696370124817
1772883330347070200,2.8560703125,0.023518312722444534,-0.06719517707824707,-0.16325373947620392
1772883330363688400,2.8726884765625,0.009621127508580685,0.09560041129589081,-0.03726277872920036
1772883330380288800,2.889288818359375,-0.005497787147760391,0.28955012559890747,0.05406157299876213
1772883330396896000,2.90589599609375,-0.019089538604021072,0.4179845452308655,0.09972374886274338
1772883330413497300,2.922497314453125,-0.012522737495601177,0.4167627990245819,0.11698069423437119
1772883330430105300,2.939105224609375,0.0024434609804302454,0.36911532282829285,0.15760323405265808
1772883330446694400,2.9556943359375,0.03344487398862839,0.37048977613449097,0.23319780826568604
1772883330463315700,2.972315673828125,0.0832303911447525,0.44058656692504883,0.32498031854629517
1772883330479922200,2.988922119140625,0.1443169116973877,0.5106833577156067,0.3952298164367676
1772883330496525300,3.005525390625,0.21639901399612427,0.5319108963012695,0.4112650156021118
1772883330513130200,3.022130126953125,0.2831360399723053,0.40973785519599915,0.3300199508666992
1772883330529737000,3.038737060546875,0.3399465084075928,0.14340060949325562,0.19746218621730804
1772883330546344400,3.055344482421875,0.3732386529445648,-0.10033461451530457,0.10354165732860565
1772883330562948900,3.071948974609375,0.3903428912162781,-0.1765400618314743,0.09285151958465576
1772883330579536000,3.088535888671875,0.39248090982437134,-0.09728029370307922,0.11743884533643723
1772883330596155000,3.10515478515625,0.39813143014907837,-0.03130684420466423,0.0988074541091919
1772883330612749800,3.121749755859375,0.3995058834552765,-0.09162978827953339,0.022449297830462456
1772883330629354800,3.138354736328125,0.39354994893074036,-0.19028452038764954,-0.11499538272619247
1772883330645961000,3.1549609375,0.38209620118141174,-0.27580565214157104,-0.2692388594150543
1772883330662566000,3.17156591796875,0.3553708493709564,-0.2588541507720947,-0.36010506749153137
1772883330679161600,3.18816162109375,0.3266601860523224,-0.08903361111879349,-0.3199406862258911
1772883330695775700,3.204775634765625,0.294895201921463,0.15622878074645996,-0.17058411240577698
1772883330712398600,3.221398681640625,0.2721404731273651,0.3439171314239502,-0.008704829961061478
1772883330729002500,3.23800244140625,0.2620611786842346,0.4178318381309509,0.07513642311096191
1772883330745598700,3.2545986328125,0.2635883390903473,0.4066835343837738,0.08261952549219131
1772883330762195200,3.2711953125,0.244804248213768,0.31780263781547546,0.04138612002134323
1772883330778817000,3.287817138671875,0.2168571650981903,0.20494529604911804,0.0328340083360672
1772883330795422200,3.304422119140625,0.17776179313659668,0.1238529309630394,0.05711590126156807
1772883330812028000,3.32102783203125,0.16019940376281738,0.08399397134780884,0.07880161702632904
1772883330828632800,3.3376328125,0.14553864300251007,0.04398229718208313,0.08521570265293121
1772883330845218800,3.35421875,0.12980885803699493,-0.007635815534740686,0.07910704612731934
1772883330861826000,3.370825927734375,0.10934487730264664,-0.0685696229338646,0.056352317333221436
1772883330878434300,3.387434326171875,0.07513642311096191,-0.13927727937698364,0.0403171069920063
1772883330895058400,3.404058349609375,0.038179077208042145,-0.16844609379768372,0.030237829312682152
1772883330911655700,3.42065576171875,0.008857546374201775,-0.18387043476104736,0.014813481830060482
1772883330928269000,3.43726904296875,-0.014202617108821869,-0.16340644657611847,0.007941247895359993
1772883330944867600,3.45386767578125,-0.04581489413976669,-0.09437867999076843,0.014202617108821869
1772883330961478000,3.470477783203125,-0.09911288321018219,-0.021074850112199783,0.03634648025035858
1772883330978064100,3.487064208984375,-0.14874568581581116,0.018936822190880775,0.059864792972803116
1772883330994686500,3.5036865234375,-0.1716531366109848,0.014202617108821869,0.06505715101957321
1772883331011291000,3.520290771484375,-0.18814650177955627,-0.03405573591589928,0.06459899991750717
1772883331027896800,3.536896728515625,-0.21410827338695526,-0.12217304855585098,0.0757472887635231
1772883331044502000,3.553501953125,-0.2347249686717987,-0.17180584371089935,0.09758572280406952
1772883331061107200,3.570107177734375,-0.25014930963516235,-0.1736384481191635,0.11774427443742752
1772883331077695500,3.586695556640625,-0.24297164380550385,-0.14935655891895294,0.1212567538022995
1772883331094304800,3.6033046875,-0.22082778811454773,-0.13118331134319305,0.1411098688840866
1772883331110909400,3.619909423828125,-0.21410827338695526,-0.20830504596233368,0.16508632898330688
1772883331127515100,3.63651513671875,-0.22021691501140594,-0.38347065448760986,0.17333301901817322
1772883331144120600,3.65312060546875,-0.2226603776216507,-0.380721777677536,0.20693060755729675
1772883331160715000,3.669715087890625,-0.20143280923366547,-0.23197607696056366,0.16279558837413788
1772883331177330700,3.68633056640625,-0.19257527589797974,-0.18539759516716003,-0.0007635815418325365
1772883331193939700,3.702939697265625,-0.20830504596233368,-0.20861047506332397,-0.1950187236070633
1772883331210556000,3.719555908203125,-0.25182920694351196,-0.26190847158432007,-0.30573806166648865
1772883331227160800,3.736160888671875,-0.29825496673583984,-0.28496864438056946,-0.3016147017478943
1772883331243765500,3.752765625,-0.3197879493236542,-0.1996002197265625,-0.2220495194196701
1772883331260349700,3.769349609375,-0.30115658044815063,-0.02580905705690384,-0.12018773704767227
1772883331276973800,3.785973876953125,-0.24144448339939117,0.17806722223758698,-0.003512475173920393
1772883331293580800,3.802580810546875,-0.17058411240577698,0.27580565214157104,0.13041973114013672
1772883331310189000,3.81918896484375,-0.11163562536239624,0.230448916554451,0.2724458873271942
1772883331326793000,3.83579296875,-0.06872233748435974,0.031612277030944824,0.38988474011421204
1772883331343397600,3.852397705078125,-0.04764748737215996,-0.20341812074184418,0.451123982667923
1772883331360003000,3.869003173828125,-0.05161811411380768,-0.3260493278503418,0.47800204157829285
1772883331376594000,3.885593994140625,-0.0806342139840126,-0.40882155299186707,0.489608496427536
1772883331393214000,3.9022138671875,-0.16172657907009125,-0.45204028487205505,0.4607451260089874
1772883331409819400,3.9188193359375,-0.2785545587539673,-0.41828998923301697,0.33628132939338684
1772883331426424800,3.9354248046875,-0.40622538328170776,-0.36590829491615295,0.1365283876657486
1772883331443029800,3.95202978515625,-0.504574716091156,-0.2974913716316223,-0.05314527451992035
1772883331459635000,3.968635009765625,-0.531758189201355,-0.17119498550891876,-0.16798794269561768
1772883331476240100,3.985240234375,-0.5077817440032959,0.012217304669320583,-0.18249599635601044
1772883331492846300,4.001846435546875,-0.44394633173942566,0.23487769067287445,-0.10873401165008545
1772883331509451300,4.018451171875,-0.37171149253845215,0.365755558013916,-0.03145955875515938
1772883331526056200,4.03505615234375,-0.2871066629886627,0.32268956303596497,0.0074830991216003895
1772883331542661600,4.05166162109375,-0.19975294172763824,0.21899518370628357,0.012980886735022068
1772883331559251000,4.0682509765625,-0.12538009881973267,0.14752395451068878,0.0029016099870204926
1772883331575859000,4.08485888671875,-0.05726861581206322,0.08048149943351746,-0.03298672288656235
1772883331592452400,4.101452392578125,-0.006872233934700489,-0.015118914656341076,-0.08857546001672745
1772883331609069300,4.1180693359375,0.02672535367310047,-0.08338310569524765,-0.12217304855585098
1772883331625675300,4.13467529296875,0.0354301854968071,-0.16172657907009125,-0.1437060534954071
1772883331642280200,4.1512802734375,0.03955352306365967,-0.18585574626922607,-0.14217889308929443
1772883331658885600,4.1678857421875,0.050243668258190155,-0.22647829353809357,-0.16019940376281738
1772883331675490800,4.18449072265625,0.06765332818031311,-0.24129177629947662,-0.21609358489513397
1772883331692134700,4.201134765625,0.07788532227277756,-0.17287486791610718,-0.2834414839744568
1772883331708715000,4.217715087890625,0.06688974797725677,-0.04795292019844055,-0.3061962127685547
1772883331725321000,4.234321044921875,0.06520986557006836,0.03191770985722542,-0.30054569244384766
1772883331741925600,4.250925537109375,0.09651670604944229,0.05772676691412926,-0.31123584508895874
1772883331758519000,4.26751904296875,0.14584407210350037,0.021838432177901268,-0.3127630054950714
1772883331775136300,4.28413623046875,0.16783522069454193,0.0012217304902151227,-0.2704605758190155
1772883331791725300,4.300725341796875,0.17730364203453064,0.019547687843441963,-0.21853704750537872
1772883331808348000,4.317347900390625,0.20204368233680725,0.04444044828414917,-0.15836681425571442
1772883331824953000,4.333953125,0.22663100063800812,0.07284568250179291,-0.10506882518529892
1772883331841557500,4.3505576171875,0.2396118938922882,0.11071932315826416,-0.07238753139972687
1772883331858163000,4.367162841796875,0.24174992740154266,0.14508049190044403,-0.038637228310108185
1772883331874768400,4.383768310546875,0.23686300218105316,0.13347405195236206,-0.010690141469240189
1772883331891355600,4.400355712890625,0.23900102078914642,0.08979719132184982,0.00931569468230009
1772883331907980000,4.41697998046875,0.26221391558647156,0.09453139454126358,0.022602014243602753
1772883331924585000,4.4335849609375,0.30833423137664795,0.12782354652881622,0.03649919852614403
1772883331941190000,4.45018994140625,0.33948835730552673,0.1739438772201538,0.00931569468230009
1772883331957795600,4.466795654296875,0.3591887652873993,0.2246456891298294,-0.02428189292550087
1772883331974400800,4.48340087890625,0.3978259861469269,0.22143864631652832,-0.048105638474226
1772883331991005700,4.500005615234375,0.4306600093841553,0.21151208877563477,-0.04199698567390442
1772883332007594800,4.5165947265625,0.4579962193965912,0.2525927722454071,-0.05421429127454758
1772883332024216800,4.533216796875,0.45814892649650574,0.2431243658065796,-0.1290452778339386
1772883332040822300,4.549822265625,0.42531493306159973,0.1537853181362152,-0.2525927722454071
1772883332057410000,4.56641015625,0.3523165285587311,-0.06383541971445084,-0.39446622133255005
1772883332074019300,4.583019287109375,0.25014930963516235,-0.2811507284641266,-0.46211954951286316
1772883332090624300,4.599624267578125,0.13897185027599335,-0.28496864438056946,-0.3836233615875244
1772883332107229700,4.616229736328125,0.06001751124858856,0.043676864355802536,-0.1661553531885147
1772883332123835100,4.632835205078125,0.02122756652534008,0.49877145886421204,0.1417207419872284
1772883332140440800,4.64944091796875,0.02825251780450344,0.789237916469574,0.36651915311813354
1772883332157046000,4.6660458984375,0.0809396430850029,0.8327620625495911,0.46303585171699524
1772883332173651200,4.682651123046875,0.13988813757896423,0.6717990636825562,0.48059824109077454
1772883332190273500,4.6992734375,0.1872301995754242,0.3695734739303589,0.4810563921928406
1772883332206860000,4.715860107421875,0.2203696370124817,0.1647808998823166,0.503963828086853
1772883332223481600,4.732481689453125,0.25335636734962463,0.09529497474431992,0.5115996599197388
1772883332240086000,4.7490859375,0.29138273000717163,0.07284568250179291,0.4648684561252594
1772883332256692000,4.76569189453125,0.34162637591362,0.10064005106687546,0.3729332387447357
1772883332273296600,4.782296630859375,0.3758348524570465,0.10949759185314178,0.2580905556678772
1772883332289902000,4.798902099609375,0.3943135142326355,0.07452555745840073,0.1716531366109848
1772883332306478800,4.815478759765625,0.3972151279449463,-0.014813481830060482,0.10476338863372803
1772883332323090000,4.83208984375,0.39446622133255005,-0.1241583600640297,0.06582073122262955
1772883332339704300,4.848704345703125,0.39843684434890747,-0.15851953625679016,0.07666359096765518
1772883332356309200,4.865309326171875,0.40362921357154846,-0.13255776464939117,0.07437284290790558
1772883332372916000,4.881916015625,0.40714168548583984,-0.05161811411380768,0.07192938029766083
1772883332389517300,4.898517333984375,0.3891211748123169,0.11362093687057495,0.08338310569524765
1772883332406114300,4.9151142578125,0.38209620118141174,0.22571471333503723,0.08536841720342636
1772883332422734600,4.931734619140625,0.36132678389549255,0.25854870676994324,0.06841690838336945
1772883332439351000,4.94835107421875,0.30894508957862854,0.23808473348617554,0.02519819140434265
1772883332455955500,4.96495556640625,0.23075434565544128,0.19608774781227112,-0.021991148591041565
1772883332472561000,4.981560791015625,0.17272214591503143,0.18096883594989777,-0.02932153269648552
1772883332489166300,4.998166259765625,0.16371189057826996,0.20586158335208893,-0.010690141469240189
1772883332505756000,5.014755859375,0.17012597620487213,0.2168571650981903,0.008857546374201775
1772883332522377700,5.031377685546875,0.1722639948129654,0.18738290667533875,0.028405234217643738
1772883332538982400,5.047982421875,0.16081027686595917,0.1492038369178772,0.03756821155548096
1772883332555587600,5.064587646484375,0.14187344908714294,0.08307767659425735,0.023365596309304237
1772883332572193000,5.081193115234375,0.11102475970983505,0.03191770985722542,-0.005192354787141085
1772883332588798200,5.097798095703125,0.07773260027170181,-0.05604688450694084,-0.04764748737215996
1772883332605388500,5.114388427734375,0.055283304303884506,-0.11484266817569733,-0.08429940044879913
1772883332622009900,5.131009765625,0.03451388701796532,-0.1270599663257599,-0.062460970133543015
1772883332638614500,5.147614501953125,0.02168571576476097,-0.13759739696979523,-0.00809396430850029
1772883332655219700,5.1642197265625,0.005803219974040985,-0.1492038369178772,0.043218716979026794
1772883332671825200,5.1808251953125,-0.01878410577774048,-0.15729780495166779,0.07192938029766083
1772883332688430300,5.197430419921875,-0.06398813426494598,-0.1609629988670349,0.0835358202457428
1772883332705053400,5.214053466796875,-0.1281289905309677,-0.17760907113552094,0.07925976812839508
1772883332721642000,5.23064208984375,-0.18616119027137756,-0.20341812074184418,0.08597928285598755
1772883332738247200,5.2472470703125,-0.21059578657150269,-0.21273382008075714,0.12400564551353455
1772883332754851800,5.263851806640625,-0.21624629199504852,-0.19532416760921478,0.18051068484783173
1772883332771457300,5.280457275390625,-0.2428189367055893,-0.18280142545700073,0.20265454053878784
1772883332788062500,5.2970625,-0.2834414839744568,-0.20265454053878784,0.15836681425571442
1772883332804647000,5.31364697265625,-0.30283644795417786,-0.12171489745378494,0.11682797968387604
1772883332821252400,5.33025244140625,-0.2987131178379059,-0.07941248267889023,0.044135015457868576
1772883332837862000,5.34686181640625,-0.2837468981742859,-0.2246456891298294,-0.10262536257505417
1772883332854474200,5.36347412109375,-0.3072652220726013,-0.3952298164367676,-0.2968805134296417
1772883332871075800,5.380075927734375,-0.34116822481155396,-0.43050727248191833,-0.4489859640598297
1772883332887681300,5.396681396484375,-0.36102136969566345,-0.3016147017478943,-0.4596760869026184
1772883332904286700,5.41328662109375,-0.34025195240974426,-0.09224065393209457,-0.3396410644054413
1772883332920909300,5.429909423828125,-0.28328874707221985,0.12950342893600464,-0.13041973114013672
1772883332937510700,5.4465107421875,-0.21303924918174744,0.2588541507720947,0.08689557760953903
1772883332954116900,5.463116943359375,-0.1547016203403473,0.2119702398777008,0.22663100063800812
1772883332970721500,5.479721435546875,-0.13866640627384186,0.006872233934700489,0.27947086095809937
1772883332987327000,5.496326904296875,-0.13775011897087097,-0.22296582162380219,0.32039880752563477
1772883333003916300,5.512916259765625,-0.14538592100143433,-0.31932979822158813,0.3793473243713379
1772883333020534300,5.5295341796875,-0.16691893339157104,-0.3065016269683838,0.4109596014022827
1772883333037154000,5.546154052734375,-0.2099849283695221,-0.21700987219810486,0.37522396445274353
1772883333053749200,5.562749267578125,-0.2770273983478546,-0.1238529309630394,0.26343563199043274
1772883333070353700,5.579353759765625,-0.35613444447517395,-0.06750060617923737,0.09453139454126358
1772883333086959400,5.59595947265625,-0.41370847821235657,-0.13805554807186127,-0.08445212244987488
1772883333103564500,5.612564453125,-0.43157628178596497,-0.21135938167572021,-0.19944749772548676
1772883333120166100,5.629166259765625,-0.4150829315185547,-0.1088867336511612,-0.22571471333503723
1772883333136779800,5.64577978515625,-0.3729332387447357,0.10399980843067169,-0.17256943881511688
1772883333153381400,5.66238134765625,-0.31810808181762695,0.32589662075042725,-0.07376197725534439
1772883333169985800,5.67898583984375,-0.2503020465373993,0.40026944875717163,0.0007635815418325365
1772883333186591500,5.695591552734375,-0.16371189057826996,0.2770273983478546,-0.0003054326225537807
1772883333203163100,5.7121630859375,-0.0806342139840126,0.0780380368232727,-0.06643159687519073
1772883333219799600,5.728799560546875,-0.03726277872920036,-0.08368854224681854,-0.16371189057826996
1772883333236411000,5.745410888671875,-0.03375030308961868,-0.14828753471374512,-0.230448916554451
1772883333253013500,5.762013427734375,-0.06185010448098183,-0.09697485715150833,-0.24434609711170197
1772883333269618000,5.778617919921875,-0.07696902006864548,0.010537425056099892,-0.24327708780765533
1772883333286224100,5.79522412109375,-0.07360926270484924,0.1007927656173706,-0.23900102078914642
1772883333302812000,5.81181201171875,-0.046731192618608475,0.10445795953273773,-0.23335053026676178
1772883333319420700,5.828420654296875,-0.009010262787342072,0.07513642311096191,-0.21502456068992615
1772883333336026000,5.845026123046875,0.018020525574684143,0.023976460099220276,-0.20357084274291992
1772883333352621000,5.86162109375,0.0354301854968071,-0.04398229718208313,-0.20555615425109863
1772883333369236700,5.87823681640625,0.049785517156124115,-0.06887505948543549,-0.2151772826910019
1772883333385842000,5.894842041015625,0.07819075137376785,-0.044287730008363724,-0.2246456891298294
1772883333402434600,5.9114345703125,0.11285735666751862,0.02474004216492176,-0.18875735998153687
1772883333419070000,5.928070068359375,0.14095716178417206,0.08735372871160507,-0.11820242553949356
1772883333435672000,5.944672119140625,0.1563815027475357,0.13041973114013672,-0.052228979766368866
1772883333452277800,5.96127783203125,0.164170041680336,0.1411098688840866,-0.030695978552103043
1772883333468867600,5.97786767578125,0.1612684279680252,0.10018189996480942,-0.014813481830060482
1772883333485487900,5.99448779296875,0.15347988903522491,0.06979135423898697,0.015882495790719986
1772883333502078700,6.01107861328125,0.13408492505550385,0.044745877385139465,0.04948008432984352
1772883333518699000,6.027698974609375,0.10659598559141159,0.0025961773935705423,0.052381694316864014
1772883333535304700,6.0443046875,0.08506298810243607,-0.10094548016786575,0.001679879380390048
1772883333551909400,6.060909423828125,0.06185010448098183,-0.17821992933750153,-0.054825156927108765
1772883333568498200,6.077498291015625,0.040164388716220856,-0.09758572280406952,-0.06230825558304787
1772883333585120000,6.0941201171875,0.012064588256180286,0.01710422709584236,-0.06215553730726242
1772883333601709000,6.110708984375,-0.01237002108246088,0.09712757170200348,-0.07162395119667053
1772883333618331600,6.12733154296875,-0.04703662544488907,0.11331550031900406,-0.11102475970983505
1772883333634936000,6.14393603515625,-0.07284568250179291,-0.022449297830462456,-0.16982053220272064
1772883333651542300,6.160542236328125,-0.09285151958465576,-0.16554448008537292,-0.23060162365436554
1772883333668147000,6.17714697265625,-0.0936150997877121,-0.28420504927635193,-0.3017674386501312
1772883333684752600,6.193752685546875,-0.12522737681865692,-0.32498031854629517,-0.3465133011341095
1772883333701342200,6.21034228515625,-0.15500704944133759,-0.14844025671482086,-0.294437050819397
1772883333717963500,6.226963623046875,-0.16310101747512817,0.12492194026708603,-0.14966198801994324
1772883333734568400,6.243568359375,-0.12629638612270355,0.2967278063297272,0.0328340083360672
1772883333751174100,6.260174072265625,-0.05253441259264946,0.34926220774650574,0.2099849283695221
1772883333767775000,6.27677490234375,0.05772676691412926,0.32940909266471863,0.36590829491615295
1772883333784367600,6.29336767578125,0.1696678251028061,0.2955060601234436,0.46441030502319336
1772883333800964400,6.30996435546875,0.24648413062095642,0.20387627184391022,0.46563202142715454
1772883333817582000,6.32658203125,0.2871066629886627,0.05115996301174164,0.3842342495918274
1772883333834187500,6.3431875,0.3165809214115143,-0.04092797264456749,0.29306259751319885
1772883333850792400,6.35979248046875,0.3271183371543884,-0.022602014243602753,0.20952677726745605
1772883333867398000,6.37639794921875,0.3165809214115143,0.005497787147760391,0.11026117950677872
1772883333884003000,6.393003173828125,0.28298333287239075,-0.014049900695681572,0.01771509274840355
1772883333900596500,6.409596435546875,0.25442537665367126,-0.07864890247583389,-0.10354165732860565
1772883333917237500,6.426237548828125,0.2370157092809677,-0.2295326143503189,-0.25763240456581116
1772883333933833500,6.44283349609375,0.23869559168815613,-0.34773504734039307,-0.4156937897205353
1772883333950416600,6.459416748046875,0.25641068816185,-0.3628539443016052,-0.5064072608947754
1772883333967028700,6.47602880859375,0.2739730477333069,-0.247094988822937,-0.45295658707618713
1772883333983649000,6.49264892578125,0.30344730615615845,0.011453723534941673,-0.27382034063339233
1772883334000238000,6.509238037109375,0.3602577745914459,0.23640485107898712,-0.06887505948543549
1772883334016860700,6.525860595703125,0.4251621961593628,0.3013092875480652,0.06551529467105865
1772883334033465000,6.542465087890625,0.4505131244659424,0.24495697021484375,0.1062905490398407
1772883334050070800,6.55907080078125,0.4173736870288849,0.1310305893421173,0.06643159687519073
1772883334066676000,6.575676025390625,0.33826664090156555,0.03405573591589928,-0.01191187184303999
1772883334083281400,6.592281494140625,0.25473082065582275,0.003054326167330146,-0.05925392732024193
1772883334099865900,6.608865966796875,0.20234911143779755,0.014202617108821869,-0.06948592513799667
1772883334116496100,6.62549609375,0.17730364203453064,0.0455094613134861,-0.04963280260562897
1772883334133097200,6.64209716796875,0.17027868330478668,0.05849034711718559,-0.013897184282541275
1772883334149703200,6.658703125,0.16493362188339233,0.04886921867728233,0.00015271631127689034
1772883334166280200,6.6752802734375,0.1514945775270462,0.015271631069481373,-0.01114829070866108
1772883334182913800,6.691913818359375,0.10873401165008545,-0.03298672288656235,-0.03756821155548096
1772883334199489300,6.7084892578125,0.05849034711718559,-0.06734789162874222,-0.04352414980530739
1772883334216124400,6.72512451171875,0.016493361443281174,-0.0607810914516449,-0.009773843921720982
1772883334232729600,6.7417294921875,-0.01664607785642147,-0.049785517156124115,0.02519819140434265
1772883334249334800,6.758334716796875,-0.05650503560900688,-0.03145955875515938,0.04245513305068016
1772883334265930000,6.774929931640625,-0.09697485715150833,-0.04764748737215996,0.06154467165470123
1772883334282532900,6.791532958984375,-0.14294247329235077,-0.10491610318422318,0.09758572280406952
1772883334299124500,6.80812451171875,-0.19898934662342072,-0.14309518039226532,0.13668109476566315
1772883334315743000,6.824742919921875,-0.25732699036598206,-0.13561208546161652,0.13209961354732513
1772883334332348200,6.84134814453125,-0.3094032406806946,-0.1238529309630394,0.09697485715150833
1772883334348954000,6.8579541015625,-0.33918291330337524,-0.11026117950677872,0.09178250283002853
1772883334365559000,6.87455908203125,-0.3523165285587311,-0.09269879758358002,0.12461651116609573
1772883334382164500,6.89116455078125,-0.36331209540367126,-0.07620543986558914,0.1748601794242859
1772883334398761200,6.90776123046875,-0.37950003147125244,-0.1592831164598465,0.19746218621730804
1772883334415389400,6.924389404296875,-0.3764457106590271,-0.270766019821167,0.2041817009449005
1772883334431994400,6.940994384765625,-0.34208452701568604,-0.304669052362442,0.20128010213375092
1772883334448599600,6.957599609375,-0.32818734645843506,-0.4008803069591522,0.12217304855585098
1772883334465208000,6.9742080078125,-0.3680463135242462,-0.4657847583293915,-0.016951510682702065
1772883334481810200,6.99081005859375,-0.447000652551651,-0.45295658707618713,-0.19593502581119537
1772883334498386400,7.007386474609375,-0.5224425196647644,-0.4740314185619354,-0.375071257352829
1772883334515021300,7.024021240234375,-0.5369505286216736,-0.47968193888664246,-0.4430300295352936
1772883334531626500,7.04062646484375,-0.5174028873443604,-0.4334088861942291,-0.3669773042201996
1772883334548230400,7.05723046875,-0.4943426847457886,-0.3191770911216736,-0.21151208877563477
1772883334564838000,7.073837890625,-0.4285219609737396,-0.18509216606616974,-0.039248090237379074
1772883334581443000,7.090443115234375,-0.34544429183006287,-0.12293662875890732,0.11927144229412079
1772883334598012400,7.107012451171875,-0.2617557644844055,-0.20173825323581696,0.25305092334747314
1772883334614653700,7.12365380859375,-0.2064724564552307,-0.2919935882091522,0.37491855025291443
1772883334631259000,7.1402587890625,-0.20326541364192963,-0.31261029839515686,0.4424191415309906
1772883334647864000,7.156864013671875,-0.2246456891298294,-0.32910364866256714,0.417679101228714
1772883334664470000,7.173469970703125,-0.2587014436721802,-0.3497203588485718,0.33276882767677307
1772883334681075000,7.190074951171875,-0.31551191210746765,-0.33719760179519653,0.20525072515010834
1772883334697680000,7.206679931640625,-0.3908010423183441,-0.3364340364933014,0.003359758760780096
1772883334714286300,7.223286376953125,-0.4688390791416168,-0.3491095006465912,-0.1973094791173935
1772883334730891000,7.23989111328125,-0.49953505396842957,-0.20112738013267517,-0.299476683139801
1772883334747496400,7.256496337890625,-0.4957171380519867,0.020616702735424042,-0.27122417092323303
1772883334764071700,7.27307177734375,-0.455705463886261,0.23289237916469574,-0.1267545372247696
1772883334780693500,7.289693603515625,-0.40515637397766113,0.31642818450927734,0.008246680721640587
1772883334797313800,7.306313720703125,-0.3620903789997101,0.24984388053417206,0.07040221989154816
1772883334813904600,7.322904541015625,-0.33826664090156555,0.12400564551353455,0.044135015457868576
1772883334830510000,7.339510009765625,-0.299018532037735,0.006108652334660292,-0.022449297830462456
1772883334847115000,7.356114990234375,-0.24648413062095642,-0.045204028487205505,-0.08567385375499725
1772883334863720400,7.372720458984375,-0.20387627184391022,-0.022449297830462456,-0.15424346923828125
1772883334880323300,7.3893232421875,-0.1837177276611328,-0.015577063895761967,-0.2272418737411499
1772883334896939300,7.405939208984375,-0.1618792861700058,-0.032528575509786606,-0.26908615231513977
1772883334913550300,7.42255029296875,-0.12095131725072861,-0.027947084978222847,-0.23884831368923187
1772883334930155500,7.439155517578125,-0.04948008432984352,-0.009621127508580685,-0.18157969415187836
1772883334946761200,7.45576123046875,0.02428189292550087,-0.021991148591041565,-0.1492038369178772
1772883334963333400,7.47233349609375,0.08109235763549805,-0.06841690838336945,-0.1547016203403473
1772883334979977700,7.488977783203125,0.11102475970983505,-0.0981965884566307,-0.1719585657119751
1772883334996562200,7.505562255859375,0.12919799983501434,-0.09056077152490616,-0.17806722223758698
1772883335013182500,7.522182373046875,0.14263702929019928,-0.07177666574716568,-0.1927279829978943
1772883335029788200,7.5387880859375,0.15546520054340363,-0.033139441162347794,-0.20494529604911804
1772883335046393000,7.55539306640625,0.15760323405265808,0.04566217586398125,-0.17638733983039856
1772883335062983200,7.571983154296875,0.16279558837413788,0.11667526513338089,-0.10766500234603882
1772883335079609000,7.588609130859375,0.1560760736465454,0.15225815773010254,-0.0429132841527462
1772883335096182300,7.605182373046875,0.12996158003807068,0.12492194026708603,0.007177666760981083
1772883335112815000,7.621815185546875,0.10277807712554932,0.07620543986558914,0.05604688450694084
1772883335129429000,7.638428955078125,0.07864890247583389,0.021532999351620674,0.09529497474431992
1772883335146023000,7.65502294921875,0.07009678333997726,0.06215553730726242,0.10674870014190674
1772883335162617000,7.6716171875,0.05971207842230797,0.11759155988693237,0.08994990587234497
1772883335179242500,7.688242431640625,0.05757404863834381,0.18829920887947083,0.10399980843067169
1772883335195862300,7.7048623046875,0.06780604273080826,0.3179553747177124,0.15775595605373383
1772883335212447700,7.72144775390625,0.08506298810243607,0.2964223623275757,0.16844609379768372
1772883335229052700,7.738052734375,0.12522737681865692,0.22449298202991486,0.15012013912200928
1772883335245658000,7.754658203125,0.17302757501602173,0.30115658044815063,0.16722436249256134
1772883335262242600,7.77124267578125,0.20723603665828705,0.2565633952617645,0.08124507963657379
1772883335278855200,7.787855224609375,0.24388794600963593,0.08246681094169617,-0.056810468435287476
1772883335295449000,7.804448974609375,0.22846360504627228,-0.08597928285598755,-0.07528914511203766
1772883335312066000,7.821066162109375,0.15195272862911224,-0.1875356286764145,-0.019547687843441963
1772883335328671200,7.837671142578125,0.07040221989154816,-0.11698069423437119,0.04703662544488907
1772883335345276700,7.854276611328125,0.02015855349600315,0.08857546001672745,0.11209376901388168
1772883335361882000,7.870882080078125,-0.001679879380390048,0.2768746614456177,0.18555031716823578
1772883335378475500,7.8874755859375,0.010537425056099892,0.32620203495025635,0.29306259751319885
1772883335395129300,7.90412939453125,0.0503963828086853,0.31520646810531616,0.40072759985923767
1772883335411712300,7.920712158203125,0.07696902006864548,0.29825496673583984,0.4853324294090271
1772883335428317200,7.937317138671875,0.08628471940755844,0.3260493278503418,0.5050328373908997
1772883335444923000,7.9539228515625,0.09926560521125793,0.3361285924911499,0.44165557622909546
1772883335461512400,7.970512451171875,0.1319468915462494,0.2964223623275757,0.3119994103908539
1772883335478121200,7.987121337890625,0.18081611394882202,0.22907446324825287,0.1667662113904953
1772883335494732300,8.003732177734374,0.24174992740154266,0.16203200817108154,0.05864306539297104
1772883335511326700,8.02032666015625,0.3078760802745819,0.07941248267889023,-0.009010262787342072
1772883335527930600,8.0369306640625,0.36942076683044434,-0.048258353024721146,-0.040164388716220856
1772883335544540000,8.053539794921875,0.4437935948371887,-0.13484850525856018,-0.055283304303884506
1772883335561150700,8.070150634765625,0.5248859524726868,-0.17608191072940826,-0.0754418596625328
1772883335577766000,8.086765869140624,0.58062744140625,-0.19318613409996033,-0.10735956579446793
1772883335594373000,8.103373046875,0.6126978397369385,-0.16264286637306213,-0.13836097717285156
1772883335610977000,8.11997705078125,0.6166684627532959,-0.0780380368232727,-0.13271047174930573
1772883335627581700,8.136581787109375,0.5910121202468872,0.06582073122262955,-0.060322944074869156
1772883335644187400,8.1531875,0.5403103232383728,0.2116648107767105,0.046273041516542435
1772883335660765400,8.169765380859374,0.49266281723976135,0.2739730477333069,0.1241583600640297
1772883335677381600,8.186381591796875,0.4466952085494995,0.2816088795661926,0.14782938361167908
1772883335693983000,8.20298291015625,0.38347065448760986,0.2854267954826355,0.13668109476566315
1772883335710613500,8.219613525390624,0.2935207486152649,0.33307427167892456,0.11438451707363129
1772883335727214000,8.236214111328126,0.18509216606616974,0.3692680299282074,0.10674870014190674
1772883335743803000,8.252802978515625,0.08032877743244171,0.3355177342891693,0.11636982858181
1772883335760401400,8.2694013671875,-0.01237002108246088,0.23319780826568604,0.12247848510742188
1772883335777018400,8.286018310546876,-0.06291911751031876,0.08949175477027893,0.13988813757896423
1772883335793628400,8.30262841796875,-0.0731511116027832,0.014508049935102463,0.13026700913906097
1772883335810228000,8.31922802734375,-0.08796459436416626,-0.003512475173920393,0.06185010448098183
1772883335826833200,8.335833251953124,-0.12400564551353455,-0.030237829312682152,-0.042760565876960754
1772883335843438300,8.352438232421875,-0.17791450023651123,-0.010842857882380486,-0.09483683109283447
1772883335860030700,8.36903076171875,-0.25076019763946533,0.038179077208042145,-0.06963863968849182
1772883335876649200,8.385649169921875,-0.304669052362442,0.03985895588994026,0.011301007121801376
1772883335893272000,8.40227197265625,-0.3095559775829315,-0.038637228310108185,0.05803219974040985
1772883335909873700,8.418873779296876,-0.3136793076992035,-0.15164729952812195,0.04703662544488907
1772883335926478800,8.435478759765624,-0.3628539443016052,-0.2142609804868698,-0.00366519158706069
1772883335943084300,8.452084228515625,-0.43997567892074585,-0.1963931769132614,-0.05604688450694084
1772883335959676700,8.4686767578125,-0.4996877610683441,-0.1212567538022995,-0.08261952549219131
1772883335976283000,8.485282958984374,-0.522595226764679,-0.01542434748262167,-0.059406645596027374
1772883335992893400,8.5018935546875,-0.5288565754890442,0.12110403180122375,0.02382374368607998
1772883336009513700,8.518513671875,-0.5485569834709167,0.04917465150356293,0.07452555745840073
1772883336026111200,8.535111328125,-0.561079740524292,-0.11071932315826416,0.1137736514210701
1772883336042716700,8.551716552734375,-0.5482515692710876,-0.17287486791610718,0.13988813757896423
1772883336059305700,8.5683056640625,-0.5584835410118103,-0.3142901659011841,0.06536258012056351
1772883336075928300,8.58492822265625,-0.6172793507575989,-0.38866302371025085,-0.07880161702632904
1772883336092525300,8.601525390625,-0.7102835774421692,-0.2860376536846161,-0.24785856902599335
1772883336109146600,8.618146728515624,-0.7693848013877869,-0.07177666574716568,-0.39706242084503174
1772883336125743600,8.63474365234375,-0.7596109509468079,0.18509216606616974,-0.4311181604862213
1772883336142348500,8.6513486328125,-0.6928738951683044,0.31291571259498596,-0.32879820466041565
1772883336158939000,8.66793896484375,-0.5870414972305298,0.27870726585388184,-0.12660181522369385
1772883336175545000,8.684545166015624,-0.4512766897678375,0.1699732542037964,0.08399397134780884
1772883336192160300,8.70116015625,-0.32879820466041565,0.04260785132646561,0.25793784856796265
1772883336208776400,8.7177763671875,-0.2275473028421402,-0.12629638612270355,0.37568211555480957
1772883336225374700,8.734374755859376,-0.1518000066280365,-0.25335636734962463,0.4586070775985718
1772883336241964300,8.75096435546875,-0.10934487730264664,-0.375529408454895,0.4787656366825104
1772883336258569700,8.76756982421875,-0.11255192011594772,-0.5309945940971375,0.4450153410434723
1772883336275178800,8.7841787109375,-0.17959438264369965,-0.6444628238677979,0.3553708493709564
1772883336291784400,8.800784423828125,-0.32070425152778625,-0.661719799041748,0.16554448008537292
1772883336308389600,8.8173896484375,-0.4560109078884125,-0.6762278079986572,-0.12828169763088226
1772883336324995000,8.8339951171875,-0.5216789245605469,-0.48380526900291443,-0.3825543522834778
1772883336341600300,8.850600341796875,-0.5259549617767334,-0.14233160018920898,-0.5390886068344116
1772883336358205700,8.867205810546874,-0.46502116322517395,0.10797043144702911,-0.5387831330299377
1772883336374814500,8.883814453125,-0.38606682419776917,0.21181751787662506,-0.4158465266227722
1772883336391426600,8.900426513671874,-0.2646573781967163,0.21105393767356873,-0.2678644061088562
1772883336408040200,8.917040283203125,-0.15500704944133759,0.08903361111879349,-0.1898263692855835
1772883336424643600,8.9336435546875,-0.049785517156124115,-0.04077525436878204,-0.17150041460990906
1772883336441246200,8.95024609375,0.044745877385139465,-0.1339322030544281,-0.16798794269561768
1772883336457836000,8.9668359375,0.1359175145626068,-0.13607023656368256,-0.17531833052635193
1772883336474457600,8.98345751953125,0.20463985204696655,-0.08002334833145142,-0.18051068484783173
1772883336491062300,9.000062255859374,0.26862800121307373,0.00045814894838258624,-0.1814269721508026
1772883336507669000,9.0166689453125,0.32009339332580566,0.054367005825042725,-0.1514945775270462
1772883336524273200,9.033273193359374,0.34605515003204346,0.021532999351620674,-0.10231992602348328
1772883336540878600,9.049878662109375,0.36682456731796265,-0.02428189292550087,-0.08903361111879349
1772883336557467600,9.066467529296874,0.3998112976551056,0.048716504126787186,-0.10155634582042694
1772883336574089500,9.08308935546875,0.43478333950042725,0.11667526513338089,-0.1333213448524475
1772883336590693000,9.099693115234375,0.49037206172943115,0.12247848510742188,-0.1748601794242859
1772883336607302400,9.116302490234375,0.5923865437507629,0.25366178154945374,-0.21884247660636902
1772883336623909400,9.132909423828124,0.6696610450744629,0.3995058834552765,-0.2356412708759308
1772883336640511000,9.149510986328124,0.7095199823379517,0.4712825417518616,-0.1388191282749176
1772883336657118500,9.166118408203126,0.7809911966323853,0.46960264444351196,-0.0039706239476799965
1772883336673721900,9.182721923828124,0.8909469842910767,0.4917465150356293,0.04764748737215996
1772883336690328600,9.19932861328125,0.979216992855072,0.6495024561882019,0.030695978552103043
1772883336706932200,9.21593212890625,1.056796908378601,0.8790351152420044,0.02672535367310047
1772883336723521000,9.23252099609375,1.0914634466171265,1.0042624473571777,0.05864306539297104
1772883336740129800,9.2491298828125,1.0873401165008545,0.9660834074020386,0.07269296050071716
1772883336756739300,9.2657392578125,1.0739010572433472,0.870330274105072,0.09896016865968704
1772883336773341000,9.2823408203125,1.0305296182632446,0.7499898076057434,0.07910704612731934
1772883336789946400,9.2989462890625,0.9706648588180542,0.5125159621238708,0.009162978269159794
1772883336806551800,9.3155517578125,0.965319812297821,0.6006332635879517,0.06673702597618103
