time,seconds_elapsed,z,y,x
1772883327644546600,0.153546630859375,-0.29474249482154846,-0.2499966025352478,-0.38637226819992065
1772883327661154600,0.170154541015625,-0.35323283076286316,-0.361174076795578,-0.2594650089740753
1772883327677768000,0.186767822265625,-0.3627012372016907,-0.43050727248191833,-0.14966198801994324
1772883327694366000,0.203365966796875,-0.3364340364933014,-0.4619668424129486,-0.12171489745378494
1772883327710979000,0.21997900390625,-0.3194825351238251,-0.4795292317867279,-0.1508837193250656
1772883327727581400,0.23658154296875,-0.3147483170032501,-0.4466952085494995,-0.1950187236070633
1772883327744186600,0.2531865234375,-0.3436116874217987,-0.4547891616821289,-0.21594086289405823
1772883327760803800,0.269803955078125,-0.42760565876960754,-0.5112941861152649,-0.18188512325286865
1772883327777410600,0.28641064453125,-0.49846604466438293,-0.5797111392021179,-0.07971791177988052
1772883327794017500,0.303017578125,-0.5306891798973083,-0.6783658266067505,0.06841690838336945
1772883327810620200,0.3196201171875,-0.5578727126121521,-0.806647539138794,0.1840231567621231
1772883327827233000,0.33623291015625,-0.6021603941917419,-0.9356928467750549,0.18524488806724548
1772883327843833000,0.3528330078125,-0.6249151229858398,-0.9944885969161987,0.15363261103630066
1772883327860414200,0.369414306640625,-0.6270532011985779,-0.9553932547569275,0.13286319375038147
1772883327877043200,0.386043212890625,-0.5768095254898071,-0.7354817390441895,0.13041973114013672
1772883327893649000,0.40264892578125,-0.4473060667514801,-0.2617557644844055,0.11636982858181
1772883327910253000,0.419253173828125,-0.3020728528499603,0.07330382615327835,0.009621127508580685
1772883327926864400,0.435864501953125,-0.24113905429840088,0.035582900047302246,-0.21899518370628357
1772883327943438800,0.45243896484375,-0.270766019821167,-0.12828169763088226,-0.41340306401252747
1772883327960069400,0.4690693359375,-0.35033121705055237,-0.21410827338695526,-0.4401284158229828
1772883327976673800,0.485673828125,-0.4360050559043884,-0.15760323405265808,-0.3517056703567505
1772883327993275100,0.502275146484375,-0.47418415546417236,0.04734205827116966,-0.23228150606155396
1772883328009887500,0.518887451171875,-0.4512766897678375,0.34574973583221436,-0.08368854224681854
1772883328026484200,0.535484130859375,-0.3510948121547699,0.7032586336135864,0.10094548016786575
1772883328043096800,0.552096923828125,-0.2093740701675415,0.880104124546051,0.2382374405860901
1772883328059700000,0.568699951171875,-0.0832303911447525,0.7680103182792664,0.33017265796661377
1772883328076304400,0.585304443359375,0.0064140851609408855,0.4908302128314972,0.45036038756370544
1772883328092913200,0.6019130859375,0.025045474991202354,0.12767083942890167,0.5761986374855042
1772883328109521700,0.618521728515625,-0.02977968007326126,-0.24465152621269226,0.6673702597618103
1772883328126117400,0.635117431640625,-0.1638645976781845,-0.4518875777721405,0.6516404747962952
1772883328142717000,0.651717041015625,-0.2762638032436371,-0.4792237877845764,0.5161811113357544
1772883328159319000,0.668319091796875,-0.34086281061172485,-0.37369680404663086,0.3449861407279968
1772883328175945200,0.6849453125,-0.3634648323059082,-0.22571471333503723,0.19333885610103607
1772883328192529000,0.70152880859375,-0.3393356502056122,-0.09712757170200348,0.03894266113638878
1772883328209135600,0.718135498046875,-0.3341432809829712,0.031154127791523933,-0.051770828664302826
1772883328225738800,0.73473876953125,-0.35475999116897583,0.23167064785957336,-0.058337632566690445
1772883328242361000,0.751361083984375,-0.37110063433647156,0.36132678389549255,-0.06185010448098183
1772883328258996200,0.767996337890625,-0.3640756905078888,0.4132503271102905,-0.0679587572813034
1772883328275567900,0.78456787109375,-0.3228422701358795,0.39797869324684143,-0.06841690838336945
1772883328292176000,0.80117578125,-0.2525927722454071,0.23854288458824158,-0.09178250283002853
1772883328308778000,0.817778076171875,-0.16294831037521362,0.04138612002134323,-0.10308351367712021
1772883328325378800,0.83437890625,-0.07192938029766083,-0.07559457421302795,-0.07528914511203766
1772883328341998000,0.850998046875,-0.020311269909143448,-0.13744467496871948,-0.02672535367310047
1772883328358593300,0.86759326171875,0.00045814894838258624,-0.20097467303276062,-0.004734205547720194
1772883328375232300,0.884232177734375,0.02626720629632473,-0.21639901399612427,-0.012675453908741474
1772883328391805400,0.900805419921875,0.058184914290905,-0.15256360173225403,-0.050854530185461044
1772883328408409600,0.91740966796875,0.08643743395805359,-0.06536258012056351,-0.09498954564332962
1772883328425019100,0.93401904296875,0.10690141469240189,-0.052381694316864014,-0.10919216275215149
1772883328441613600,0.950613525390625,0.13484850525856018,-0.08384125679731369,-0.0780380368232727
1772883328458237000,0.96723681640625,0.17012597620487213,-0.15103642642498016,-0.07330382615327835
1772883328474837200,0.983837158203125,0.19288070499897003,-0.18417587876319885,-0.09483683109283447
1772883328491433500,1.00043359375,0.20326541364192963,-0.1661553531885147,-0.1270599663257599
1772883328508037400,1.017037353515625,0.20357084274291992,-0.10797043144702911,-0.14767667651176453
1772883328524646400,1.033646484375,0.20570887625217438,-0.0024434609804302454,-0.14065171778202057
1772883328541253400,1.05025341796875,0.22052235901355743,0.08597928285598755,-0.09346238523721695
1772883328557846500,1.066846435546875,0.24297164380550385,0.09865473955869675,-0.0029016099870204926
1772883328574451200,1.083451171875,0.25564709305763245,0.036193765699863434,0.060322944074869156
1772883328591073800,1.10007373046875,0.2591595947742462,-0.056810468435287476,0.0832303911447525
1772883328607665000,1.116664794921875,0.24098633229732513,-0.04505131021142006,0.11255192011594772
1772883328624265000,1.133264892578125,0.2324342280626297,0.019853120669722557,0.11972958594560623
1772883328640856300,1.149856201171875,0.2353358417749405,0.11698069423437119,0.07528914511203766
1772883328657475000,1.16647509765625,0.23289237916469574,0.12492194026708603,-0.013286318629980087
1772883328674085600,1.183085693359375,0.2096794992685318,0.04657847434282303,-0.05451972410082817
1772883328690687700,1.199687744140625,0.21823160350322723,0.04382958263158798,0.00045814894838258624
1772883328707292200,1.216292236328125,0.2741257846355438,0.15424346923828125,0.07528914511203766
1772883328723900000,1.23289990234375,0.3257438838481903,0.2197587788105011,0.06475171446800232
1772883328740516900,1.249516845703125,0.31413745880126953,0.15042556822299957,-0.0633772686123848
1772883328757115600,1.26611572265625,0.21273382008075714,0.012522737495601177,-0.21991148591041565
1772883328773729500,1.2827294921875,0.07864890247583389,-0.060475658625364304,-0.290313720703125
1772883328790332700,1.299332763671875,-0.02626720629632473,-0.024892758578062057,-0.2837468981742859
1772883328806936800,1.315936767578125,-0.08139779418706894,0.07666359096765518,-0.21853704750537872
1772883328823537200,1.332537109375,-0.10048733651638031,0.19196440279483795,-0.09269879758358002
1772883328840163300,1.349163330078125,-0.057879481464624405,0.31780263781547546,0.11927144229412079
1772883328856741400,1.365741455078125,0.03878994286060333,0.42378777265548706,0.36422839760780334
1772883328873364700,1.38236474609375,0.16371189057826996,0.4957171380519867,0.5638286471366882
1772883328889960400,1.39896044921875,0.2597704529762268,0.47342056035995483,0.7043276429176331
1772883328906568200,1.415568115234375,0.30253100395202637,0.323147714138031,0.7586946487426758
1772883328923175400,1.432175537109375,0.29993483424186707,0.14935655891895294,0.7324274182319641
1772883328939780000,1.448780029296875,0.29474249482154846,0.09239336848258972,0.68951416015625
1772883328956383000,1.465383056640625,0.28420504927635193,0.14614951610565186,0.6695083379745483
1772883328972986000,1.481986083984375,0.2750420868396759,0.18035796284675598,0.6166684627532959
1772883328989599200,1.49859912109375,0.26145032048225403,0.1765400618314743,0.5193881988525391
1772883329006240500,1.515240478515625,0.25106561183929443,0.13255776464939117,0.46670106053352356
1772883329022806000,1.531805908203125,0.24327708780765533,0.06673702597618103,0.46043968200683594
1772883329039412000,1.548411865234375,0.23808473348617554,0.013897184282541275,0.44593164324760437
1772883329056012800,1.5650126953125,0.21762074530124664,0.04505131021142006,0.4005748927593231
1772883329072628000,1.5816279296875,0.18784105777740479,0.12568552792072296,0.3217732608318329
1772883329089223000,1.598222900390625,0.14844025671482086,0.17318029701709747,0.22388210892677307
1772883329105832400,1.61483251953125,0.10247264802455902,0.17073683440685272,0.12492194026708603
1772883329122424800,1.6314248046875,0.10064005106687546,0.13041973114013672,0.08949175477027893
1772883329139032600,1.648032470703125,0.1235474944114685,0.1316414624452591,0.17287486791610718
1772883329155631600,1.664631591796875,0.15225815773010254,0.18295414745807648,0.3049744665622711
1772883329172237600,1.681237548828125,0.16065755486488342,0.22372940182685852,0.3871358633041382
1772883329188846600,1.6978466796875,0.11789698898792267,0.18738290667533875,0.3608686327934265
1772883329205453300,1.714453369140625,0.06933320313692093,0.14614951610565186,0.26221391558647156
1772883329222079500,1.73107958984375,0.06414084881544113,0.08567385375499725,0.15790866315364838
1772883329238667800,1.747667724609375,0.08475755155086517,0.06841690838336945,0.10766500234603882
1772883329255274500,1.7642744140625,0.098502017557621,0.10583240538835526,0.08261952549219131
1772883329271891200,1.78089111328125,0.09957103431224823,0.10002918541431427,0.044135015457868576
1772883329288490000,1.797489990234375,0.09575312584638596,0.02977968007326126,0.01160643994808197
1772883329305092400,1.81409228515625,0.06765332818031311,-0.09804387390613556,-0.00366519158706069
1772883329321694500,1.830694580078125,0.031154127791523933,-0.21059578657150269,-0.019089538604021072
1772883329338313000,1.84731298828125,0.002138028386980295,-0.2545780837535858,-0.022449297830462456
1772883329354908700,1.86390869140625,-0.012064588256180286,-0.21639901399612427,0.00855211354792118
1772883329371518000,1.88051806640625,-0.038637228310108185,-0.18249599635601044,0.01771509274840355
1772883329388125400,1.89712548828125,-0.048716504126787186,-0.19120082259178162,-0.031001411378383636
1772883329404726800,1.913726806640625,-0.06505715101957321,-0.2600758671760559,-0.08918632566928864
1772883329421329700,1.93032958984375,-0.10201449692249298,-0.34208452701568604,-0.13179416954517365
1772883329437941200,1.946941162109375,-0.15302173793315887,-0.3975205719470978,-0.1062905490398407
1772883329454538800,1.963538818359375,-0.18829920887947083,-0.33368512988090515,-0.052381694316864014
1772883329471159000,1.980158935546875,-0.17256943881511688,-0.1560760736465454,0.01237002108246088
1772883329487754000,1.99675390625,-0.16493362188339233,-0.03375030308961868,0.055283304303884506
1772883329504357600,2.013357666015625,-0.16691893339157104,-0.05772676691412926,0.06108652427792549
1772883329520962000,2.029962158203125,-0.15943582355976105,-0.05406157299876213,0.06765332818031311
1772883329537572900,2.04657275390625,-0.15806138515472412,-0.10797043144702911,0.08002334833145142
1772883329554156000,2.063156005859375,-0.18356500566005707,-0.20097467303276062,0.052228979766368866
1772883329570786000,2.0797861328125,-0.2298380434513092,-0.31612277030944824,-0.06230825558304787
1772883329587384600,2.096384521484375,-0.3049744665622711,-0.413097620010376,-0.2692388594150543
1772883329603974000,2.112973876953125,-0.39965859055519104,-0.39965859055519104,-0.4784601926803589
1772883329620583200,2.129583251953125,-0.46670106053352356,-0.1976149082183838,-0.5500841736793518
1772883329637205200,2.146205322265625,-0.47189339995384216,0.10308351367712021,-0.4547891616821289
1772883329653789700,2.162789794921875,-0.4254676401615143,0.31520646810531616,-0.2701551616191864
1772883329670402600,2.179402587890625,-0.36590829491615295,0.35613444447517395,-0.08216137439012527
1772883329687006200,2.196006103515625,-0.31291571259498596,0.2353358417749405,0.05971207842230797
1772883329703611400,2.212611328125,-0.29474249482154846,0.0010690141934901476,0.17073683440685272
1772883329720231700,2.229231689453125,-0.31123584508895874,-0.23900102078914642,0.28588494658470154
1772883329736826600,2.24582666015625,-0.31902438402175903,-0.3280346393585205,0.3527746796607971
1772883329753441500,2.262441650390625,-0.3378084897994995,-0.3312416672706604,0.33475416898727417
1772883329770054100,2.27905419921875,-0.3784310221672058,-0.34437528252601624,0.22082778811454773
1772883329786651600,2.295651611328125,-0.4260784983634949,-0.28435778617858887,0.04886921867728233
1772883329803256800,2.3122568359375,-0.4584543704986572,-0.10293079167604446,-0.11881329119205475
1772883329819860700,2.32886083984375,-0.4634940028190613,0.12782354652881622,-0.25076019763946533
1772883329836465000,2.34546484375,-0.4239404797554016,0.27320948243141174,-0.31230485439300537
1772883329853078500,2.36207861328125,-0.35246923565864563,0.3608686327934265,-0.28725937008857727
1772883329869680400,2.378680419921875,-0.2701551616191864,0.35750889778137207,-0.22128593921661377
1772883329886281000,2.395281005859375,-0.16691893339157104,0.29397889971733093,-0.13729196786880493
1772883329902885400,2.411885498046875,-0.06368270516395569,0.21181751787662506,-0.06643159687519073
1772883329919493000,2.4284931640625,0.035582900047302246,0.07009678333997726,-0.053297992795705795
1772883329936096500,2.445096435546875,0.1270599663257599,-0.0529925599694252,-0.08781187981367111
1772883329952705500,2.46170556640625,0.1739438772201538,-0.12018773704767227,-0.1466076523065567
1772883329969302500,2.478302490234375,0.18784105777740479,-0.15577064454555511,-0.21594086289405823
1772883329985918700,2.494918701171875,0.17608191072940826,-0.1889100819826126,-0.290313720703125
1772883330002518500,2.5115185546875,0.15225815773010254,-0.24129177629947662,-0.3119994103908539
1772883330019126000,2.5281259765625,0.13637566566467285,-0.20387627184391022,-0.2762638032436371
1772883330035727600,2.5447275390625,0.15042556822299957,-0.08429940044879913,-0.2353358417749405
1772883330052332800,2.561332763671875,0.1840231567621231,0.013133603148162365,-0.21059578657150269
1772883330068942000,2.577942138671875,0.21578814089298248,0.0064140851609408855,-0.2370157092809677
1772883330085542000,2.5945419921875,0.24923302233219147,-0.04932736977934837,-0.30405816435813904
1772883330102142500,2.611142578125,0.26862800121307373,-0.07696902006864548,-0.3055853247642517
1772883330118743600,2.62774365234375,0.275347501039505,-0.08735372871160507,-0.22403483092784882
1772883330135346200,2.64434619140625,0.28985556960105896,-0.09407325088977814,-0.11804971098899841
1772883330151950300,2.660950439453125,0.28298333287239075,-0.04764748737215996,-0.0507018156349659
1772883330168561700,2.677561767578125,0.25641068816185,-0.023976460099220276,-0.04841107130050659
1772883330185162000,2.694161865234375,0.23090706765651703,0.00045814894838258624,-0.04046982154250145
1772883330201770000,2.71077001953125,0.20494529604911804,0.05146539583802223,-0.013133603148162365
1772883330218389000,2.727388916015625,0.17638733983039856,0.0659734457731247,0.00855211354792118
1772883330234993000,2.743992919921875,0.1411098688840866,0.1186605766415596,0.02519819140434265
1772883330251597600,2.76059765625,0.1062905490398407,0.16814066469669342,0.02871066704392433
1772883330268232200,2.777232177734375,0.09315694868564606,0.16554448008537292,0.035582900047302246
1772883330284821800,2.79382177734375,0.09239336848258972,0.1618792861700058,0.037110064178705215
1772883330301404700,2.81040478515625,0.08246681094169617,0.14187344908714294,-0.032528575509786606
1772883330318019600,2.82701953125,0.06780604273080826,0.03084869496524334,-0.16584990918636322
1772883330334622500,2.84362255859375,0.04398229718208313,-0.0832303911447525,-0.21914790570735931
1772883330351203000,2.860203125,0.019853120669722557,-0.03787364438176155,-0.13454307615756989
1772883330367831800,2.876831787109375,0.007024950347840786,0.14584407210350037,-0.01038470957428217
1772883330384442600,2.893442626953125,-0.007788531947880983,0.3321579694747925,0.06979135423898697
1772883330401044200,2.910044189453125,-0.019394971430301666,0.4283692538738251,0.10354165732860565
1772883330417653000,2.926653076171875,-0.008399397134780884,0.4046982228755951,0.1235474944114685
1772883330434255000,2.943255126953125,0.008246680721640587,0.3623957931995392,0.17211128771305084
1772883330450862300,2.9598623046875,0.04566217586398125,0.3822489380836487,0.2551889419555664
1772883330467471000,2.97647119140625,0.09773843735456467,0.46181413531303406,0.3446807265281677
1772883330484070000,2.99306982421875,0.16310101747512817,0.5215262174606323,0.40485092997550964
1772883330500675800,3.00967578125,0.2344195395708084,0.5190827250480652,0.3995058834552765
1772883330517282000,3.026281982421875,0.30054569244384766,0.35155296325683594,0.29764407873153687
1772883330533886700,3.04288671875,0.3500257730484009,0.07009678333997726,0.16661348938941956
1772883330550494200,3.059494140625,0.38011088967323303,-0.13545936346054077,0.09300423413515091
1772883330567094300,3.07609423828125,0.3927863538265228,-0.16798794269561768,0.09911288321018219
1772883330583691000,3.09269091796875,0.39385536313056946,-0.07162395119667053,0.11789698898792267
1772883330600296200,3.109296142578125,0.40026944875717163,-0.03680463135242462,0.08307767659425735
1772883330616902400,3.12590234375,0.39874228835105896,-0.11591167747974396,-0.0065668015740811825
1772883330633506000,3.142506103515625,0.3929390609264374,-0.21441370248794556,-0.156686931848526
1772883330650112500,3.159112548828125,0.3764457106590271,-0.2854267954826355,-0.30283644795417786
1772883330666719000,3.175718994140625,0.34987306594848633,-0.22800545394420624,-0.36392298340797424
1772883330683321000,3.192321044921875,0.3199406862258911,-0.029016099870204926,-0.2915354371070862
1772883330699931600,3.208931640625,0.28955012559890747,0.21273382008075714,-0.12736541032791138
1772883330716546300,3.22554638671875,0.2675589919090271,0.37400224804878235,0.020463986322283745
1772883330733156600,3.242156494140625,0.2652682363986969,0.4199698567390442,0.08307767659425735
1772883330749758200,3.25875830078125,0.25992316007614136,0.3930917978286743,0.07177666574716568
1772883330766360800,3.27536083984375,0.24190263450145721,0.2877175211906433,0.03451388701796532
1772883330782973200,3.29197314453125,0.20631973445415497,0.1814269721508026,0.035582900047302246
1772883330799574500,3.308574462890625,0.17440202832221985,0.11010845750570297,0.06368270516395569
1772883330816180000,3.325179931640625,0.15729780495166779,0.07651086896657944,0.07880161702632904
1772883330832780800,3.34178076171875,0.1437060534954071,0.031001411378383636,0.08506298810243607
1772883330849377800,3.358377685546875,0.1258382350206375,-0.022143865004181862,0.07284568250179291
1772883330865981200,3.374981201171875,0.10247264802455902,-0.08628471940755844,0.04963280260562897
1772883330882582800,3.391582763671875,0.06643159687519073,-0.14966198801994324,0.03680463135242462
1772883330899206000,3.408205810546875,0.03130684420466423,-0.1716531366109848,0.02626720629632473
1772883330915799600,3.424799560546875,0.004123340360820293,-0.18539759516716003,0.009773843921720982
1772883330932416800,3.441416748046875,-0.01924225501716137,-0.14844025671482086,0.007177666760981083
1772883330949011200,3.45801123046875,-0.05726861581206322,-0.07483099400997162,0.017562376335263252
1772883330965627600,3.474627685546875,-0.11178833991289139,-0.005803219974040985,0.04306599870324135
1772883330982232600,3.491232666015625,-0.15653422474861145,0.019853120669722557,0.06215553730726242
1772883330998835700,3.507835693359375,-0.1742493063211441,0.0074830991216003895,0.06414084881544113
1772883331015446300,3.5244462890625,-0.19379699230194092,-0.05406157299876213,0.06536258012056351
1772883331032049000,3.541048828125,-0.21823160350322723,-0.1408044397830963,0.07925976812839508
1772883331048654300,3.557654296875,-0.23945917189121246,-0.17440202832221985,0.10262536257505417
1772883331065256200,3.574256103515625,-0.24923302233219147,-0.1699732542037964,0.11957687139511108
1772883331081851100,3.59085107421875,-0.2370157092809677,-0.14324790239334106,0.12247848510742188
1772883331098453500,3.60745361328125,-0.21471913158893585,-0.13698652386665344,0.14798210561275482
1772883331115065000,3.624065185546875,-0.2151772826910019,-0.2513710558414459,0.16371189057826996
1772883331131667500,3.64066748046875,-0.22113321721553802,-0.40851613879203796,0.18081611394882202
1772883331148272600,3.657272705078125,-0.21807889640331268,-0.3439171314239502,0.206777885556221
1772883331164877800,3.6738779296875,-0.1950187236070633,-0.2102903574705124,0.13011430203914642
1772883331181483300,3.690483154296875,-0.1915062516927719,-0.18555031716823578,-0.05161811411380768
1772883331198104800,3.707104736328125,-0.2165517359972,-0.22189679741859436,-0.23335053026676178
1772883331214708500,3.72370849609375,-0.26313021779060364,-0.27320948243141174,-0.31673362851142883
1772883331231308800,3.740308837890625,-0.30573806166648865,-0.2744311988353729,-0.28725937008857727
1772883331247922700,3.756922607421875,-0.31902438402175903,-0.16249015927314758,-0.19914206862449646
1772883331264534300,3.7735341796875,-0.28878653049468994,0.02825251780450344,-0.09407325088977814
1772883331281128700,3.790128662109375,-0.22281309962272644,0.2151772826910019,0.027030786499381065
1772883331297719800,3.8067197265625,-0.15256360173225403,0.27779096364974976,0.16554448008537292
1772883331314348000,3.82334814453125,-0.0981965884566307,0.1944078654050827,0.30482175946235657
1772883331330945300,3.8399453125,-0.060475658625364304,-0.03237585723400116,0.4095851480960846
1772883331347550200,3.85655029296875,-0.045204028487205505,-0.24465152621269226,0.45891252160072327
1772883331364156000,3.873156005859375,-0.05513058975338936,-0.3471241891384125,0.4804455041885376
1772883331380760600,3.889760498046875,-0.09437867999076843,-0.427452951669693,0.48869219422340393
1772883331397366500,3.906366455078125,-0.18860463798046112,-0.44913867115974426,0.43829581141471863
1772883331413969200,3.92296923828125,-0.3094032406806946,-0.40653082728385925,0.28878653049468994
1772883331430580000,3.939580078125,-0.43676865100860596,-0.35063666105270386,0.08307767659425735
1772883331447182300,3.956182373046875,-0.5169447064399719,-0.27320948243141174,-0.0910189226269722
1772883331463787800,3.972787841796875,-0.5293147563934326,-0.1290452778339386,-0.1823432743549347
1772883331480392700,3.989392822265625,-0.4934264123439789,0.06429356336593628,-0.17119498550891876
1772883331496998100,4.005998046875,-0.4260784983634949,0.2854267954826355,-0.0884227454662323
1772883331513600800,4.022600830078125,-0.3504839241504669,0.3680463135242462,-0.017409659922122955
1772883331530212400,4.03921240234375,-0.26404649019241333,0.2974913716316223,0.009010262787342072
1772883331546804000,4.055803955078125,-0.1788308024406433,0.19792033731937408,0.012828170321881771
1772883331563409700,4.07240966796875,-0.10797043144702911,0.1310305893421173,-0.005650503560900688
1772883331580011300,4.08901123046875,-0.04230241850018501,0.05925392732024193,-0.04856378585100174
1772883331596616400,4.105616455078125,0.005192354787141085,-0.03573561832308769,-0.09896016865968704
1772883331613220400,4.122220458984375,0.030543262138962746,-0.10231992602348328,-0.1316414624452591
1772883331629828600,4.13882861328125,0.038637228310108185,-0.17150041460990906,-0.144622340798378
1772883331646432500,4.1554326171875,0.04108068719506264,-0.19364428520202637,-0.14569136500358582
1772883331663038000,4.172037841796875,0.055894169956445694,-0.23747386038303375,-0.17073683440685272
1772883331679643100,4.18864306640625,0.07269296050071716,-0.23182335495948792,-0.23594669997692108
1772883331696265700,4.205265625,0.07757988572120667,-0.14217889308929443,-0.29474249482154846
1772883331712863700,4.22186376953125,0.06368270516395569,-0.02275473065674305,-0.30695977807044983
1772883331729477400,4.238477294921875,0.07024950534105301,0.04489859566092491,-0.30024027824401855
1772883331746078500,4.255078369140625,0.11071932315826416,0.05161811411380768,-0.31642818450927734
1772883331762684200,4.27168408203125,0.1547016203403473,0.011759156361222267,-0.3061962127685547
1772883331779288600,4.28828857421875,0.1716531366109848,0.0065668015740811825,-0.2583959996700287
1772883331795899400,4.3048994140625,0.18280142545700073,0.022602014243602753,-0.20662516355514526
1772883331812490800,4.32149072265625,0.2096794992685318,0.053297992795705795,-0.1437060534954071
1772883331829109500,4.338109619140625,0.23182335495948792,0.0806342139840126,-0.09605856239795685
1772883331845710600,4.354710693359375,0.2405281960964203,0.12079860270023346,-0.06612616032361984
1772883331862315500,4.3713154296875,0.24129177629947662,0.14813482761383057,-0.030543262138962746
1772883331878920700,4.387920654296875,0.23671028017997742,0.12110403180122375,-0.007024950347840786
1772883331895526000,4.40452587890625,0.24205535650253296,0.08475755155086517,0.01191187184303999
1772883331912131600,4.421131591796875,0.2750420868396759,0.10247264802455902,0.02672535367310047
1772883331928736000,4.437736083984375,0.31810808181762695,0.13744467496871948,0.03344487398862839
1772883331945343700,4.45434375,0.3462078869342804,0.18845193088054657,-0.0009162978967651725
1772883331961947600,4.47094775390625,0.3669773042201996,0.2301434874534607,-0.03344487398862839
1772883331978553300,4.48755322265625,0.4105014503002167,0.2165517359972,-0.049785517156124115
1772883331995158300,4.504158203125,0.4381431043148041,0.22021691501140594,-0.04138612002134323
1772883332011760400,4.520760498046875,0.4625777006149292,0.25442537665367126,-0.0685696229338646
1772883332028368400,4.537368408203125,0.45295658707618713,0.23075434565544128,-0.15683965384960175
1772883332044975000,4.55397509765625,0.4121813178062439,0.11178833991289139,-0.2886338233947754
1772883332061562600,4.570562744140625,0.3303253948688507,-0.12828169763088226,-0.4248567819595337
1772883332078174700,4.5871748046875,0.22128593921661377,-0.3090978264808655,-0.4579962193965912
1772883332094776600,4.603776611328125,0.11438451707363129,-0.23273965716362,-0.34147366881370544
1772883332111382000,4.620382080078125,0.04856378585100174,0.16111570596694946,-0.09254608303308487
1772883332127987700,4.63698779296875,0.017867809161543846,0.593913733959198,0.20922134816646576
1772883332144588800,4.6535888671875,0.040164388716220856,0.8222246170043945,0.4008803069591522
1772883332161202200,4.6702021484375,0.09682214260101318,0.8097018599510193,0.4717406928539276
1772883332177803500,4.686803466796875,0.1537853181362152,0.6018549799919128,0.4784601926803589
1772883332194425900,4.70342578125,0.19776763021945953,0.3023782968521118,0.48517972230911255
1772883332211023600,4.720023681640625,0.2301434874534607,0.1385136991739273,0.5077817440032959
1772883332227633200,4.736633056640625,0.2632829248905182,0.08567385375499725,0.5053382515907288
1772883332244242400,4.753242431640625,0.304669052362442,0.07590000331401825,0.4444044530391693
1772883332260843800,4.76984375,0.35216382145881653,0.10751228034496307,0.34345898032188416
1772883332277449000,4.786448974609375,0.3830125033855438,0.10399980843067169,0.23136521875858307
1772883332294054400,4.803054443359375,0.3962988257408142,0.06017022579908371,0.15347988903522491
1772883332310659800,4.819659912109375,0.39797869324684143,-0.04535674303770065,0.08918632566928864
1772883332327260200,4.83626025390625,0.395077109336853,-0.14156801998615265,0.06398813426494598
1772883332343859700,4.852859619140625,0.4011857509613037,-0.15500704944133759,0.07864890247583389
1772883332360459300,4.869459228515625,0.40653082728385925,-0.12308934330940247,0.07040221989154816
1772883332377067500,4.886067626953125,0.4043927788734436,-0.01191187184303999,0.07360926270484924
1772883332393660200,4.90266015625,0.38667771220207214,0.14782938361167908,0.08368854224681854
1772883332410278400,4.9192783203125,0.380721777677536,0.24144448339939117,0.08246681094169617
1772883332426905900,4.93590576171875,0.3523165285587311,0.2562579810619354,0.05803219974040985
1772883332443498000,4.952498046875,0.29107728600502014,0.22861631214618683,0.010842857882380486
1772883332460103400,4.969103515625,0.21303924918174744,0.18646661937236786,-0.029016099870204926
1772883332476718300,4.98571826171875,0.166460782289505,0.1840231567621231,-0.02733621932566166
1772883332493318700,5.002318603515625,0.16737708449363708,0.21151208877563477,-0.005803219974040985
1772883332509919700,5.018919677734375,0.1722639948129654,0.21288654208183289,0.012980886735022068
1772883332526532600,5.03553271484375,0.17180584371089935,0.17959438264369965,0.030237829312682152
1772883332543136800,5.05213671875,0.1563815027475357,0.1333213448524475,0.03527746722102165
1772883332559735800,5.06873583984375,0.13958270847797394,0.07024950534105301,0.016951510682702065
1772883332576350500,5.0853505859375,0.1010981947183609,0.013591751456260681,-0.015118914656341076
1772883332592950800,5.10195068359375,0.07269296050071716,-0.07666359096765518,-0.06169738993048668
1772883332609558800,5.118558837890625,0.04993823543190956,-0.12049316614866257,-0.08643743395805359
1772883332626162400,5.135162353515625,0.031612277030944824,-0.13011430203914642,-0.052381694316864014
1772883332642764800,5.151764892578125,0.019394971430301666,-0.13973543047904968,0.005345070734620094
1772883332659372800,5.168372802734375,0.001527163083665073,-0.1511891484260559,0.052381694316864014
1772883332675978000,5.18497802734375,-0.02733621932566166,-0.1598939746618271,0.07559457421302795
1772883332692583000,5.2015830078125,-0.07773260027170181,-0.16310101747512817,0.08170322328805923
1772883332709188000,5.21818798828125,-0.14355333149433136,-0.18646661937236786,0.0780380368232727
1772883332725794600,5.234794677734375,-0.19517144560813904,-0.20662516355514526,0.09208793938159943
1772883332742399500,5.2513994140625,-0.21044307947158813,-0.21410827338695526,0.13668109476566315
1772883332759004700,5.268004638671875,-0.21930062770843506,-0.18600846827030182,0.19089539349079132
1772883332775610000,5.284610107421875,-0.251218318939209,-0.1895209401845932,0.19517144560813904
1772883332792215000,5.301215087890625,-0.290313720703125,-0.19364428520202637,0.1459967941045761
1772883332808803300,5.31780322265625,-0.3029891550540924,-0.09789115190505981,0.10231992602348328
1772883332825412400,5.334412353515625,-0.2941316068172455,-0.10125091671943665,0.013591751456260681
1772883332842004200,5.351004150390625,-0.2848159074783325,-0.2719877362251282,-0.1495092660188675
1772883332858623000,5.367623046875,-0.31612277030944824,-0.41951170563697815,-0.34406983852386475
1772883332875228400,5.384228515625,-0.34697145223617554,-0.4121813178062439,-0.4680754840373993
1772883332891833600,5.40083349609375,-0.3599523603916168,-0.2532036304473877,-0.44104471802711487
1772883332908438800,5.417438720703125,-0.327271044254303,-0.034666601568460464,-0.2945897579193115
1772883332925062000,5.434061767578125,-0.26603180170059204,0.1745547503232956,-0.07238753139972687
1772883332941659600,5.45065966796875,-0.19456058740615845,0.2643519341945648,0.13087788224220276
1772883332958272300,5.467272216796875,-0.1463022232055664,0.17211128771305084,0.2444988191127777
1772883332974874000,5.4838740234375,-0.13790282607078552,-0.05772676691412926,0.28527405858039856
1772883332991479300,5.500479248046875,-0.1371392458677292,-0.25854870676994324,0.3352122902870178
1772883333008084700,5.517084716796875,-0.14874568581581116,-0.3254384696483612,0.3901901841163635
1772883333024674600,5.533674560546875,-0.17531833052635193,-0.28787025809288025,0.4086688458919525
1772883333041295400,5.55029541015625,-0.22327125072479248,-0.19486601650714874,0.3533855378627777
1772883333057901600,5.566901611328125,-0.29565876722335815,-0.10277807712554932,0.22372940182685852
1772883333074506200,5.58350634765625,-0.37171149253845215,-0.07192938029766083,0.047800205647945404
1772883333091111400,5.600111328125,-0.4216497242450714,-0.16783522069454193,-0.1235474944114685
1772883333107717000,5.616717041015625,-0.4294382631778717,-0.20051652193069458,-0.21395555138587952
1772883333124305700,5.6333056640625,-0.4053090810775757,-0.06123924255371094,-0.2200642079114914
1772883333140927500,5.649927490234375,-0.3585779070854187,0.16279558837413788,-0.15195272862911224
1772883333157533700,5.66653369140625,-0.30146199464797974,0.36560285091400146,-0.05115996301174164
1772883333174138400,5.683138427734375,-0.22937989234924316,0.38377609848976135,0.0065668015740811825
1772883333190743800,5.699743896484375,-0.13958270847797394,0.2275473028421402,-0.012522737495601177
1772883333207349200,5.716349365234375,-0.0633772686123848,0.03298672288656235,-0.09056077152490616
1772883333223942000,5.73294189453125,-0.03329215571284294,-0.1108720451593399,-0.18875735998153687
1772883333240560000,5.74956005859375,-0.037110064178705215,-0.14340060949325562,-0.2370157092809677
1772883333257165800,5.766165771484375,-0.0679587572813034,-0.07284568250179291,-0.24663683772087097
1772883333273770800,5.782770751953125,-0.07590000331401825,0.039095375686883926,-0.2422080636024475
1772883333290372400,5.799372314453125,-0.06902777403593063,0.10934487730264664,-0.23976461589336395
1772883333306967800,5.8159677734375,-0.03588833287358284,0.09605856239795685,-0.23029619455337524
1772883333323573000,5.832572998046875,-0.00015271631127689034,0.06765332818031311,-0.21135938167572021
1772883333340178400,5.849178466796875,0.024129176512360573,0.005345070734620094,-0.2041817009449005
1772883333356783900,5.865783935546875,0.03940080851316452,-0.05375614017248154,-0.20815233886241913
1772883333373389000,5.88238916015625,0.05543602257966995,-0.06780604273080826,-0.22021691501140594
1772883333389994500,5.898994384765625,0.08857546001672745,-0.029626963660120964,-0.22159136831760406
1772883333406600000,5.915599853515625,0.12110403180122375,0.04352414980530739,-0.17470745742321014
1772883333423222800,5.932222900390625,0.1469130963087082,0.09773843735456467,-0.09941831976175308
1772883333439824400,5.948824462890625,0.1595885455608368,0.13973543047904968,-0.04382958263158798
1772883333456426000,5.965426025390625,0.166460782289505,0.13271047174930573,-0.027947084978222847
1772883333473039400,5.982039306640625,0.1595885455608368,0.09056077152490616,-0.009162978269159794
1772883333489640200,5.99864013671875,0.15164729952812195,0.06368270516395569,0.022143865004181862
1772883333506245600,6.01524560546875,0.12858712673187256,0.03726277872920036,0.05543602257966995
1772883333522852000,6.03185205078125,0.1010981947183609,-0.017409659922122955,0.041691552847623825
1772883333539456300,6.048456298828125,0.08048149943351746,-0.13011430203914642,-0.01572977937757969
1772883333556062500,6.0650625,0.05803219974040985,-0.1742493063211441,-0.0630718395113945
1772883333572667100,6.081667236328125,0.03481931984424591,-0.062460970133543015,-0.06185010448098183
1772883333589272300,6.098272216796875,0.006261368747800589,0.03573561832308769,-0.06520986557006836
1772883333605878000,6.1148779296875,-0.017867809161543846,0.11667526513338089,-0.07819075137376785
1772883333622483700,6.131483642578125,-0.05513058975338936,0.08628471940755844,-0.12797626852989197
1772883333639088600,6.148088623046875,-0.07864890247583389,-0.059864792972803116,-0.18555031716823578
1772883333655694300,6.1646943359375,-0.09178250283002853,-0.19746218621730804,-0.2483167201280594
1772883333672299300,6.18129931640625,-0.09773843735456467,-0.30833423137664795,-0.3196352422237396
1772883333688905200,6.1979052734375,-0.1333213448524475,-0.303600013256073,-0.34574973583221436
1772883333705510100,6.21451025390625,-0.1586722433567047,-0.07712173461914062,-0.2649627923965454
1772883333722115600,6.231115478515625,-0.15760323405265808,0.17959438264369965,-0.10720685124397278
1772883333738726400,6.247726318359375,-0.10980302840471268,0.3208569586277008,0.07742717117071152
1772883333755321300,6.2643212890625,-0.027030786499381065,0.3481931984424591,0.25076019763946533
1772883333771931600,6.280931640625,0.08735372871160507,0.32070425152778625,0.3969096839427948
1772883333788520000,6.29752001953125,0.19456058740615845,0.28328874707221985,0.4735732674598694
1772883333805129000,6.31412890625,0.25931230187416077,0.1638645976781845,0.44944411516189575
1772883333821734000,6.33073388671875,0.2958115041255951,0.022143865004181862,0.3576616048812866
1772883333838339600,6.347339599609375,0.3222314119338989,-0.04764748737215996,0.27320948243141174
1772883333854945000,6.363945068359375,0.3280346393585205,-0.008857546374201775,0.18570303916931152
1772883333871550200,6.38055029296875,0.3110831379890442,-0.0007635815418325365,0.08506298810243607
1772883333888155400,6.3971552734375,0.2747366428375244,-0.020922135561704636,-0.010690141469240189
1772883333904764200,6.41376416015625,0.25045475363731384,-0.11316278576850891,-0.14034628868103027
1772883333921380000,6.430380126953125,0.23579397797584534,-0.26542094349861145,-0.29993483424186707
1772883333937985300,6.4469853515625,0.2454151064157486,-0.36010506749153137,-0.44837507605552673
1772883333954590700,6.4635908203125,0.260992169380188,-0.3507893681526184,-0.5097670555114746
1772883333971196200,6.480196044921875,0.280539870262146,-0.1895209401845932,-0.41691553592681885
1772883333987801900,6.4968017578125,0.3149010241031647,0.07788532227277756,-0.22098049521446228
1772883334004407000,6.513406982421875,0.37919458746910095,0.26832255721092224,-0.02825251780450344
1772883334021012500,6.530012451171875,0.43676865100860596,0.294437050819397,0.08292495459318161
1772883334037618200,6.5466181640625,0.44852781295776367,0.22098049521446228,0.10216721147298813
1772883334054222600,6.56322265625,0.4011857509613037,0.10186178237199783,0.0455094613134861
1772883334070828300,6.579828369140625,0.31841349601745605,0.01970040425658226,-0.029016099870204926
1772883334087434000,6.59643408203125,0.23884831368923187,0.0025961773935705423,-0.06582073122262955
1772883334104022500,6.6130224609375,0.19517144560813904,0.022449297830462456,-0.0679587572813034
1772883334120644600,6.62964453125,0.1748601794242859,0.050854530185461044,-0.04230241850018501
1772883334137249800,6.646249755859375,0.1699732542037964,0.05864306539297104,-0.00733038317412138
1772883334153855700,6.662855712890625,0.16432274878025055,0.04153883829712868,-0.0027488935738801956
1772883334170460400,6.67946044921875,0.14355333149433136,0.005955935921519995,-0.017562376335263252
1772883334187066400,6.69606640625,0.09743300825357437,-0.04749477282166481,-0.044287730008363724
1772883334203671600,6.712671630859375,0.04734205827116966,-0.06719517707824707,-0.03833179548382759
1772883334220277000,6.729277099609375,0.009468411095440388,-0.058337632566690445,-0.0009162978967651725
1772883334236878300,6.74587841796875,-0.02428189292550087,-0.04535674303770065,0.030695978552103043
1772883334253491500,6.762491455078125,-0.0659734457731247,-0.02886338345706463,0.045204028487205505
1772883334270073300,6.7790732421875,-0.10674870014190674,-0.06017022579908371,0.0682641938328743
1772883334286683600,6.79568359375,-0.15485434234142303,-0.11804971098899841,0.10842858254909515
1772883334303291100,6.812291015625,-0.21303924918174744,-0.144622340798378,0.1388191282749176
1772883334319895300,6.828895263671875,-0.2701551616191864,-0.13072516024112701,0.12308934330940247
1772883334336500700,6.845500732421875,-0.3188716471195221,-0.12278391420841217,0.08949175477027893
1772883334353106400,6.8621064453125,-0.34177911281585693,-0.10491610318422318,0.09575312584638596
1772883334369711400,6.87871142578125,-0.35414913296699524,-0.08704829961061478,0.13561208546161652
1772883334386317000,6.895317138671875,-0.36590829491615295,-0.08384125679731369,0.18356500566005707
1772883334402939100,6.911939208984375,-0.38179078698158264,-0.19318613409996033,0.19807305932044983
1772883334419542000,6.9285419921875,-0.3683517575263977,-0.2828305959701538,0.20784689486026764
1772883334436147000,6.94514697265625,-0.33307427167892456,-0.32100969552993774,0.18784105777740479
1772883334452752100,6.961752197265625,-0.33200526237487793,-0.42531493306159973,0.08949175477027893
1772883334469357300,6.978357421875,-0.38438695669174194,-0.4677700698375702,-0.059406645596027374
1772883334485962800,6.994962646484375,-0.46700647473335266,-0.4531092941761017,-0.24602597951889038
1772883334502568400,7.011568359375,-0.531758189201355,-0.47907108068466187,-0.40744712948799133
1772883334519173400,7.02817333984375,-0.5322163701057434,-0.47678032517433167,-0.43676865100860596
1772883334535779000,7.044779052734375,-0.5120577812194824,-0.4066835343837738,-0.3323107063770294
1772883334552378000,7.061378173828125,-0.4801400899887085,-0.28557950258255005,-0.17012597620487213
1772883334568989700,7.07798974609375,-0.40775254368782043,-0.15882496535778046,0.0007635815418325365
1772883334585597400,7.094597412109375,-0.3228422701358795,-0.12919799983501434,0.1540907621383667
1772883334602200300,7.111200439453125,-0.24159720540046692,-0.2321287989616394,0.2848159074783325
1772883334618806000,7.127805908203125,-0.20173825323581696,-0.299476683139801,0.39767327904701233
1772883334635411000,7.144410888671875,-0.2054034322500229,-0.31810808181762695,0.4440990388393402
1772883334652017000,7.161016845703125,-0.23182335495948792,-0.33200526237487793,0.39797869324684143
1772883334668621800,7.177621826171875,-0.26893341541290283,-0.3533855378627777,0.3066543638706207
1772883334685227300,7.194227294921875,-0.3312416672706604,-0.32986724376678467,0.1586722433567047
1772883334701833000,7.2108330078125,-0.4109596014022827,-0.3459024429321289,-0.051770828664302826
1772883334718438000,7.22743798828125,-0.4815145432949066,-0.32910364866256714,-0.2356412708759308
1772883334735043600,7.244043701171875,-0.5006040930747986,-0.1459967941045761,-0.3061962127685547
1772883334751648800,7.260648681640625,-0.4882340431213379,0.07895433157682419,-0.24373523890972137
1772883334768237000,7.277237060546875,-0.44165557622909546,0.27030786871910095,-0.08796459436416626
1772883334784845800,7.293845703125,-0.3920227587223053,0.3110831379890442,0.029474247246980667
1772883334801451500,7.310451416015625,-0.35384368896484375,0.22113321721553802,0.07177666574716568
1772883334818056700,7.327056640625,-0.32986724376678467,0.09193521738052368,0.027641652151942253
1772883334834662100,7.343662109375,-0.28649580478668213,-0.01771509274840355,-0.039095375686883926
1772883334851267600,7.360267578125,-0.23273965716362,-0.04077525436878204,-0.10201449692249298
1772883334867872800,7.376872802734375,-0.19715675711631775,-0.01878410577774048,-0.1736384481191635
1772883334884468200,7.39346826171875,-0.17821992933750153,-0.01725694350898266,-0.24404066801071167
1772883334901100500,7.4101005859375,-0.15241087973117828,-0.03634648025035858,-0.26939156651496887
1772883334917702700,7.42670263671875,-0.10522153973579407,-0.02076941914856434,-0.2255619913339615
1772883334934308000,7.44330810546875,-0.02886338345706463,-0.009621127508580685,-0.17150041460990906
1772883334950913800,7.459913818359375,0.04184427112340927,-0.032681290060281754,-0.14874568581581116
1772883334967518700,7.476518798828125,0.09178250283002853,-0.0780380368232727,-0.16081027686595917
1772883334984124700,7.493124755859375,0.1160643994808197,-0.09911288321018219,-0.17669276893138885
1772883335000729300,7.509729248046875,0.1342376321554184,-0.0832303911447525,-0.18066339194774628
1772883335017335300,7.526335205078125,0.14676037430763245,-0.06536258012056351,-0.19975294172763824
1772883335033936400,7.542936279296875,0.15745051205158234,-0.016035212203860283,-0.20372356474399567
1772883335050550000,7.559550048828125,0.15851953625679016,0.06612616032361984,-0.16249015927314758
1772883335067134700,7.576134765625,0.16432274878025055,0.13011430203914642,-0.0907134860754013
1772883335083756500,7.592756591796875,0.15134187042713165,0.15042556822299957,-0.03191770985722542
1772883335100362000,7.609362060546875,0.1235474944114685,0.11545353382825851,0.019089538604021072
1772883335116967700,7.6259677734375,0.096211276948452,0.05955936014652252,0.06719517707824707
1772883335133573000,7.642572998046875,0.07666359096765518,0.023976460099220276,0.09896016865968704
1772883335150163000,7.659162841796875,0.0685696229338646,0.07696902006864548,0.10354165732860565
1772883335166787600,7.67578759765625,0.05910121276974678,0.13057245314121246,0.08735372871160507
1772883335183389200,7.69238916015625,0.059864792972803116,0.2200642079114914,0.11560624837875366
1772883335199998700,7.708998779296875,0.0731511116027832,0.3332269787788391,0.16814066469669342
1772883335216595200,7.72559521484375,0.09300423413515091,0.2629774808883667,0.15913039445877075
1772883335233205500,7.74220556640625,0.13927727937698364,0.2376265823841095,0.15256360173225403
1772883335249806800,7.758806884765625,0.18356500566005707,0.30802878737449646,0.1592831164598465
1772883335266402300,7.77540234375,0.21731531620025635,0.21823160350322723,0.04092797264456749
1772883335283007500,7.792007568359375,0.2480112910270691,0.03680463135242462,-0.07467827945947647
1772883335299613000,7.808613037109375,0.21288654208183289,-0.12095131725072861,-0.0656680166721344
1772883335316218400,7.82521826171875,0.1313360333442688,-0.18738290667533875,-0.004123340360820293
1772883335332823800,7.84182373046875,0.054367005825042725,-0.07422012835741043,0.06276640295982361
1772883335349429200,7.85842919921875,0.013744467869400978,0.14584407210350037,0.12690725922584534
1772883335366034400,7.875034423828125,-0.0019853119738399982,0.30146199464797974,0.20983220636844635
1772883335382639900,7.891639892578125,0.02015855349600315,0.32498031854629517,0.3194825351238251
1772883335399262000,7.908261962890625,0.06062837690114975,0.3095559775829315,0.42470407485961914
1772883335415864300,7.9248642578125,0.0809396430850029,0.3013092875480652,0.49556443095207214
1772883335432469800,7.9414697265625,0.08949175477027893,0.33460143208503723,0.4966334402561188
1772883335449075200,7.9580751953125,0.1062905490398407,0.32849279046058655,0.41370847821235657
1772883335465680600,7.9746806640625,0.14355333149433136,0.28099802136421204,0.2724458873271942
1772883335482285800,7.991285888671875,0.19608774781227112,0.21380282938480377,0.13484850525856018
1772883335498889700,8.0078896484375,0.25931230187416077,0.1466076523065567,0.03634648025035858
1772883335515489500,8.024489501953125,0.32421672344207764,0.051770828664302826,-0.020463986322283745
1772883335532085500,8.04108544921875,0.38698312640190125,-0.0780380368232727,-0.04505131021142006
1772883335548692700,8.057692626953125,0.4645630121231079,-0.1463022232055664,-0.06185010448098183
1772883335565315600,8.074315673828124,0.5432119369506836,-0.18188512325286865,-0.08277224004268646
1772883335581920800,8.090920654296875,0.5917757153511047,-0.19257527589797974,-0.1186605766415596
1772883335598523400,8.1075234375,0.6172793507575989,-0.1469130963087082,-0.14248432219028473
1772883335615129000,8.124129150390624,0.6130032539367676,-0.046273041516542435,-0.12278391420841217
1772883335631734300,8.140734375,0.5809328556060791,0.10537425428628922,-0.035124752670526505
1772883335648340000,8.157340087890624,0.5271766781806946,0.2376265823841095,0.0705549344420433
1772883335664945400,8.1739453125,0.48258355259895325,0.27718010544776917,0.13301590085029602
1772883335681550600,8.190550537109376,0.43417248129844666,0.28267788887023926,0.14706580340862274
1772883335698139100,8.20713916015625,0.3654501438140869,0.289702832698822,0.1310305893421173
1772883335714761700,8.22376171875,0.2681698501110077,0.3494149148464203,0.10873401165008545
1772883335731366700,8.24036669921875,0.15882496535778046,0.3649919927120209,0.10690141469240189
1772883335747950300,8.256950439453124,0.05650503560900688,0.3182607889175415,0.1160643994808197
1772883335764568600,8.273568603515624,-0.029474247246980667,0.1963931769132614,0.1267545372247696
1772883335781169400,8.29016943359375,-0.0685696229338646,0.06261368840932846,0.14004085958003998
1772883335797774600,8.306774658203125,-0.0731511116027832,0.00809396430850029,0.11820242553949356
1772883335814380000,8.323380126953126,-0.0933096632361412,-0.011453723534941673,0.03481931984424591
1772883335830985500,8.3399853515625,-0.1342376321554184,-0.03084869496524334,-0.06475171446800232
1772883335847591000,8.3565908203125,-0.1944078654050827,0.001832595793530345,-0.09666942805051804
1772883335864196400,8.3731962890625,-0.2675589919090271,0.044745877385139465,-0.052839845418930054
1772883335880804900,8.389804931640626,-0.30894508957862854,0.028557950630784035,0.028099801391363144
1772883335897420800,8.4064208984375,-0.3072652220726013,-0.06841690838336945,0.057879481464624405
1772883335914026200,8.423026123046874,-0.3202461004257202,-0.17287486791610718,0.03634648025035858
1772883335930631700,8.439631591796875,-0.3804163336753845,-0.21700987219810486,-0.01924225501716137
1772883335947236900,8.45623681640625,-0.4570799171924591,-0.18280142545700073,-0.06612616032361984
1772883335963842000,8.472842041015625,-0.5083925724029541,-0.09926560521125793,-0.08414668589830399
1772883335980447700,8.48944775390625,-0.5238169431686401,0.019853120669722557,-0.04260785132646561
1772883335997022200,8.506022216796875,-0.5309945940971375,0.13255776464939117,0.03940080851316452
1772883336013659000,8.522658935546875,-0.5540547966957092,-0.001832595793530345,0.08032877743244171
1772883336030263800,8.539263916015624,-0.5560401082038879,-0.12690725922584534,0.12522737681865692
1772883336046869000,8.555868896484375,-0.5468770861625671,-0.20173825323581696,0.13072516024112701
1772883336063474400,8.572474365234376,-0.5676465034484863,-0.346818745136261,0.03191770985722542
1772883336080080100,8.589080078125,-0.6392704844474792,-0.3773620128631592,-0.12018773704767227
1772883336096651800,8.60565185546875,-0.7296785116195679,-0.2405281960964203,-0.2921462953090668
1772883336113291000,8.622291015625,-0.7722864151000977,-0.006261368747800589,-0.4196644127368927
1772883336129896200,8.638896240234375,-0.7464773058891296,0.23121249675750732,-0.41981714963912964
1772883336146498800,8.655498779296876,-0.6688974499702454,0.3191770911216736,-0.2845104932785034
1772883336163107300,8.672107421875,-0.5537493228912354,0.2538145184516907,-0.0734565481543541
1772883336179712300,8.688712158203124,-0.417679101228714,0.14019356667995453,0.13087788224220276
1772883336196295400,8.70529541015625,-0.3010038435459137,0.0029016099870204926,0.29046642780303955
1772883336212923400,8.72192333984375,-0.20525072515010834,-0.1647808998823166,0.3988949954509735
1772883336229525500,8.738525390625,-0.13698652386665344,-0.27977627515792847,0.46960264444351196
1772883336246120200,8.7551201171875,-0.10476338863372803,-0.41141775250434875,0.4746423065662384
1772883336262725600,8.7717255859375,-0.12171489745378494,-0.5711590051651001,0.42760565876960754
1772883336279331000,8.7883310546875,-0.20830504596233368,-0.6537785530090332,0.3197879493236542
1772883336295936500,8.8049365234375,-0.3591887652873993,-0.6698137521743774,0.09697485715150833
1772883336312542000,8.8215419921875,-0.4769330322742462,-0.6527095437049866,-0.2028072625398636
1772883336329147400,8.8381474609375,-0.5300782918930054,-0.40286561846733093,-0.4309654235839844
1772883336345752800,8.8547529296875,-0.5128213763237,-0.06414084881544113,-0.5568036437034607
1772883336362358000,8.87135791015625,-0.4495968222618103,0.14767667651176453,-0.5167919993400574
1772883336378980400,8.88798046875,-0.35475999116897583,0.21960605680942535,-0.3773620128631592
1772883336395566300,8.90456640625,-0.23457226157188416,0.1915062516927719,-0.24266621470451355
1772883336412188000,8.92118798828125,-0.1290452778339386,0.051312681287527084,-0.18325957655906677
1772883336428793600,8.937793701171875,-0.022602014243602753,-0.0656680166721344,-0.17012597620487213
1772883336445398500,8.9543984375,0.0682641938328743,-0.14767667651176453,-0.1722639948129654
1772883336462004000,8.97100390625,0.15561792254447937,-0.12018773704767227,-0.17592918872833252
1772883336478609700,8.987609619140626,0.22082778811454773,-0.06658431142568588,-0.18341228365898132
1772883336495211300,9.004211181640626,0.28466320037841797,0.023365596309304237,-0.17776179313659668
1772883336511820800,9.02082080078125,0.32940909266471863,0.05268712714314461,-0.14004085958003998
1772883336528426000,9.037426025390625,0.3504839241504669,0.004123340360820293,-0.09575312584638596
1772883336545031000,9.054031005859375,0.37568211555480957,-0.01725694350898266,-0.0907134860754013
1772883336561636400,9.07063623046875,0.4095851480960846,0.07330382615327835,-0.10735956579446793
1772883336578242000,9.087241943359375,0.44745880365371704,0.11881329119205475,-0.14294247329235077
1772883336594838800,9.1038388671875,0.5134322643280029,0.14049901068210602,-0.18997909128665924
1772883336611453000,9.120452880859375,0.6163630485534668,0.29535335302352905,-0.22876903414726257
1772883336628058600,9.13705859375,0.683863639831543,0.42409318685531616,-0.22250767052173615
1772883336644663300,9.153663330078125,0.7218900322914124,0.47800204157829285,-0.10644327104091644
1772883336661269200,9.170269287109376,0.8074111342430115,0.4657847583293915,0.01878410577774048
1772883336677874700,9.186874755859375,0.9185886383056641,0.5199990272521973,0.04764748737215996
1772883336694481700,9.203481689453126,0.9986119866371155,0.7057020664215088,0.021838432177901268
1772883336711085600,9.22008544921875,1.0740537643432617,0.9239336848258972,0.03481931984424591
1772883336727673600,9.236673583984375,1.0923798084259033,1.0099129676818848,0.06154467165470123
1772883336744282000,9.2532822265625,1.0853548049926758,0.9398161768913269,0.07513642311096191
1772883336760887800,9.2698876953125,1.067945122718811,0.8559749126434326,0.10690141469240189
1772883336777493000,9.286492919921875,1.01617431640625,0.6902777552604675,0.05619960278272629
1772883336794098400,9.303098388671875,0.9622654914855957,0.4967861473560333,0.010079276748001575
1772883336810704000,9.319703857421874,0.9729556441307068,0.6511823534965515,0.08368854224681854
