time,seconds_elapsed,z,y,x
1772883327640392200,0.14939208984375,8.556734085083008,3.6921253204345703,0.27816563844680786
1772883327656999200,0.165999267578125,9.037093162536621,3.6161532402038574,0.2847459018230438
1772883327673616400,0.182616455078125,9.008378982543945,3.597010612487793,0.2512463629245758
1772883327690218000,0.199218017578125,8.95693302154541,3.7357943058013916,0.15194423496723175
1772883327706826500,0.215826416015625,9.012566566467285,3.8835511207580566,0.267397940158844
1772883327723428600,0.2324287109375,9.120243072509766,4.046861171722412,0.3924229145050049
1772883327740033500,0.249033447265625,9.382257461547852,4.172484397888184,0.5497509837150574
1772883327756655400,0.2656552734375,9.740582466125488,4.256233215332031,0.7154539823532104
1772883327773258200,0.28225830078125,9.923035621643066,4.215555191040039,0.7334001660346985
1772883327789864400,0.298864501953125,9.9469633102417,4.192225456237793,0.6951149702072144
1772883327806466600,0.315466552734375,9.727422714233398,4.174877166748047,0.7058826684951782
1772883327823074600,0.332074462890625,9.45464038848877,4.167698860168457,0.6735795736312866
1772883327839677200,0.34867724609375,9.713065147399902,4.170690059661865,0.6771687865257263
1772883327856279300,0.365279296875,10.072587013244629,4.145565032958984,0.7226324677467346
1772883327872893000,0.381892822265625,10.601999282836914,4.007379531860352,0.7423732280731201
1772883327889495600,0.39849560546875,10.771889686584473,4.05403995513916,0.49351966381073
1772883327906099200,0.41509912109375,10.409975051879883,4.17009162902832,0.4336991012096405
1772883327922705400,0.431705322265625,10.153345108032227,4.216751575469971,0.8662018179893494
1772883327939307500,0.4483076171875,10.562517166137695,4.053441524505615,1.4464613199234009
1772883327955922200,0.464922119140625,11.193026542663574,3.5060834884643555,1.9214365482330322
1772883327972521200,0.481521240234375,11.457432746887207,2.8175487518310547,2.2642083168029785
1772883327989128200,0.498128173828125,11.37368392944336,2.3820550441741943,2.1134605407714844
1772883328005729800,0.514729736328125,11.087143898010254,1.9609181880950928,1.7527425289154053
1772883328022337300,0.531337158203125,10.433902740478516,1.6707884073257446,1.2287144660949707
1772883328039002000,0.548002197265625,9.502496719360352,1.683350682258606,0.8321040868759155
1772883328055546600,0.564546630859375,8.886344909667969,1.835893154144287,0.6885347366333008
1772883328072159700,0.58115966796875,8.675776481628418,2.1242282390594482,0.8207381963729858
1772883328088757500,0.597757568359375,8.501100540161133,2.3784656524658203,1.1156535148620605
1772883328105369600,0.61436962890625,8.497511863708496,2.672184705734253,1.4572290182113647
1772883328121973500,0.630973388671875,8.481958389282227,2.8414769172668457,1.7742780447006226
1772883328138557700,0.6475576171875,8.50588607788086,2.8325037956237793,1.7694923877716064
1772883328155162000,0.664162109375,8.84506893157959,2.8223342895507812,1.6713865995407104
1772883328171777000,0.680777099609375,9.041280746459961,2.778067111968994,1.5409778356552124
1772883328188371000,0.697370849609375,9.05982494354248,2.788236618041992,1.454836130142212
1772883328204981000,0.71398095703125,9.317052841186523,2.894717216491699,1.6217355728149414
1772883328221586400,0.73058642578125,9.211769104003906,2.898306369781494,1.6319050788879395
1772883328238239700,0.74723974609375,8.774480819702148,2.929413080215454,1.3621143102645874
1772883328254818000,0.763818115234375,8.306683540344238,2.971287488937378,0.900897741317749
1772883328271407900,0.780407958984375,7.829315662384033,2.998805046081543,0.4205385744571686
1772883328288020700,0.797020751953125,7.509275436401367,3.084946632385254,0.031106693670153618
1772883328304624000,0.8136240234375,7.598408222198486,3.129213809967041,-0.064606212079525
1772883328321228800,0.830228759765625,7.822137355804443,3.2315070629119873,0.04486542567610741
1772883328337838800,0.8468388671875,7.949554920196533,3.384049415588379,0.24586252868175507
1772883328354441500,0.86344140625,8.003992080688477,3.5473594665527344,0.26620152592658997
1772883328371058000,0.880057861328125,8.088338851928711,3.6538400650024414,0.2183450609445572
1772883328387643000,0.896642822265625,8.142775535583496,3.7980077266693115,0.2476571500301361
1772883328404256800,0.9132568359375,8.231907844543457,3.9182469844818115,0.27696922421455383
1772883328420864500,0.929864501953125,8.50289535522461,3.9936211109161377,0.22851456701755524
1772883328437468400,0.946468505859375,8.656036376953125,3.9667017459869385,0.18903298676013947
1772883328454075100,0.9630751953125,8.626724243164062,4.033102512359619,0.24227328598499298
1772883328470677500,0.979677490234375,8.726624488830566,4.118646144866943,0.4384847581386566
1772883328487283700,0.99628369140625,8.827720642089844,4.142574310302734,0.5910272002220154
1772883328503888100,1.01288818359375,9.062217712402344,4.168296813964844,0.6759724020957947
1772883328520496000,1.02949609375,9.272786140441895,4.17009162902832,0.7034898400306702
1772883328537099800,1.046099853515625,9.359525680541992,4.124029636383057,0.6406782865524292
1772883328553700400,1.062700439453125,9.439684867858887,4.17726993560791,0.6167500615119934
1772883328570313000,1.07931298828125,9.242876052856445,4.2281174659729,0.6275177597999573
1772883328586921000,1.0959208984375,9.332606315612793,4.328616142272949,0.737587571144104
1772883328603519700,1.112519775390625,9.490532875061035,4.3483567237854,0.8662018179893494
1772883328620111000,1.129111083984375,9.436694145202637,4.194019794464111,0.9224331378936768
1772883328636716500,1.145716552734375,9.352347373962402,4.280759811401367,0.737587571144104
1772883328653326300,1.162326416015625,9.422935485839844,4.329812526702881,0.6801598072052002
1772883328669929500,1.178929443359375,10.056435585021973,4.207778453826904,0.6418746709823608
1772883328686523400,1.1955234375,10.654043197631836,4.1593241691589355,0.389431893825531
1772883328703142000,1.212141845703125,10.636096954345703,4.101297855377197,0.37926238775253296
1772883328719745300,1.228745361328125,10.246066093444824,4.240081787109375,0.4546363055706024
1772883328736366600,1.24536669921875,9.856635093688965,4.4721856117248535,0.8458628058433533
1772883328752970000,1.261969970703125,10.14317512512207,4.432105541229248,1.389033555984497
1772883328769575200,1.2785751953125,10.730612754821777,4.087539196014404,1.6462619304656982
1772883328786176800,1.2951767578125,11.056036949157715,3.583850145339966,1.6456637382507324
1772883328802785300,1.311785400390625,11.268998146057129,3.1280174255371094,1.4877375364303589
1772883328819391000,1.328390869140625,11.275578498840332,2.709273338317871,1.2023934125900269
1772883328835996200,1.34499609375,11.23609733581543,2.36291241645813,0.755533754825592
1772883328852599800,1.361599853515625,10.774880409240723,2.0781664848327637,0.40677985548973083
1772883328869229000,1.37822900390625,10.045069694519043,2.1343977451324463,0.17706887423992157
1772883328885811200,1.394811279296875,9.247661590576172,2.293520450592041,0.16331014037132263
1772883328902400500,1.411400390625,8.70209789276123,2.5459632873535156,0.2021935135126114
1772883328919023900,1.42802392578125,8.50289535522461,2.7631118297576904,0.3194418251514435
1772883328935625700,1.444625732421875,8.679366111755371,2.825923442840576,0.44805604219436646
1772883328952229600,1.461229736328125,8.807381629943848,2.8941190242767334,0.4911268353462219
1772883328968845000,1.477844970703125,8.765507698059082,3.0616166591644287,0.39182472229003906
1772883328985441800,1.49444189453125,8.761918067932129,3.224926710128784,0.3403790295124054
1772883329002057500,1.511057373046875,9.043673515319824,3.257229804992676,0.27696922421455383
1772883329018644000,1.52764404296875,9.220144271850586,3.2685956954956055,0.26201409101486206
1772883329035277000,1.544277099609375,9.147162437438965,3.3678979873657227,0.3206382393836975
1772883329051864300,1.5608642578125,8.889336585998535,3.373281717300415,0.4893322288990021
1772883329068469000,1.577468994140625,8.601598739624023,3.432504177093506,0.5054838061332703
1772883329085074000,1.594073974609375,8.34736156463623,3.463012456893921,0.5551348328590393
1772883329101680400,1.610680419921875,8.346165657043457,3.4779677391052246,0.4259224236011505
1772883329118269400,1.62726953125,8.590831756591797,3.363112211227417,0.16091732680797577
1772883329134879700,1.643879638671875,8.792427062988281,3.294318675994873,0.06819544732570648
1772883329151482600,1.660482666015625,8.586644172668457,3.301496982574463,0.07417750358581543
1772883329168088600,1.677088623046875,7.895118236541748,3.4983067512512207,0.24227328598499298
1772883329184692700,1.693692626953125,7.296912670135498,3.7878382205963135,0.36729827523231506
1772883329201298400,1.71029833984375,6.933801651000977,3.9433717727661133,0.19381862878799438
1772883329217908200,1.726908203125,7.03489875793457,4.05703067779541,-0.12681959569454193
1772883329234492400,1.743492431640625,7.218547821044922,4.161118507385254,-0.31824541091918945
1772883329251129000,1.760129150390625,7.22034215927124,4.333401679992676,-0.29790642857551575
1772883329267732000,1.77673193359375,7.1270222663879395,4.460819721221924,-0.2386840581893921
1772883329284337200,1.793337158203125,7.146164894104004,4.522434711456299,-0.12382857501506805
1772883329300944400,1.8099443359375,7.292725086212158,4.675575256347656,0.05802594870328903
1772883329317548300,1.82654833984375,7.549355506896973,4.801796913146973,0.15314064919948578
1772883329334156800,1.84315673828125,7.992027759552002,4.916652202606201,0.16151553392410278
1772883329350760700,1.8597607421875,8.236095428466797,4.94775915145874,0.23688943684101105
1772883329367363600,1.876363525390625,8.195417404174805,5.066802024841309,0.2667997181415558
1772883329383968500,1.892968505859375,8.065009117126465,5.151148796081543,0.27756741642951965
1772883329400559600,1.9095595703125,8.223533630371094,5.175675392150879,0.4061816334724426
1772883329417176600,1.926176513671875,8.578866958618164,5.2013983726501465,0.6909275650978088
1772883329433769700,1.942769775390625,9.140582084655762,5.162514686584473,0.9074779748916626
1772883329450392600,1.959392578125,9.321240425109863,4.996213912963867,0.9672985672950745
1772883329466997500,1.97599755859375,9.451051712036133,5.148158073425293,0.7525427341461182
1772883329483598800,1.992598876953125,9.202198028564453,5.173282623291016,0.8117650747299194
1772883329500228900,2.009228759765625,9.024530410766602,5.181657314300537,0.7268198728561401
1772883329516812300,2.025812255859375,8.955737113952637,5.441278457641602,0.4899304509162903
1772883329533416000,2.042416015625,8.913862228393555,5.622535228729248,0.47676992416381836
1772883329550020600,2.0590205078125,8.769096374511719,5.744568824768066,0.607776939868927
1772883329566631400,2.07563134765625,8.618349075317383,5.697908878326416,0.8763712644577026
1772883329583238400,2.09223828125,8.605786323547363,5.488536834716797,1.26699960231781
1772883329599827200,2.1088271484375,9.012566566467285,5.08355188369751,1.6061822175979614
1772883329616432000,2.12543212890625,9.518050193786621,4.4189453125,1.6319050788879395
1772883329633039400,2.142039306640625,9.7064847946167,3.776472330093384,1.4344971179962158
1772883329649637600,2.1586376953125,9.489336013793945,3.4995031356811523,1.0845468044281006
1772883329666247700,2.17524755859375,9.009575843811035,3.4911282062530518,0.9152546525001526
1772883329682851300,2.191851318359375,8.532805442810059,3.6299118995666504,0.8470591902732849
1772883329699441000,2.20844091796875,8.493324279785156,3.9595232009887695,0.8638089895248413
1772883329716077800,2.225077880859375,8.667402267456055,4.133002758026123,0.9170492887496948
1772883329732680200,2.24168017578125,8.618349075317383,4.241278171539307,1.085145115852356
1772883329749262000,2.258261962890625,8.531609535217285,4.3483567237854,1.306481122970581
1772883329765898500,2.2748984375,8.474181175231934,4.4135613441467285,1.4943177700042725
1772883329782493700,2.29149365234375,8.645268440246582,4.482355117797852,1.4793626070022583
1772883329799104500,2.3081044921875,8.83250617980957,4.408775806427002,1.3962119817733765
1772883329815706400,2.324706298828125,8.891130447387695,4.258028030395508,1.1318050622940063
1772883329832339000,2.3413388671875,8.893523216247559,4.007379531860352,0.771087110042572
1772883329848923000,2.3579228515625,8.72183895111084,3.8602211475372314,0.43609192967414856
1772883329865519900,2.374519775390625,8.49152946472168,3.7974095344543457,0.15972091257572174
1772883329882130400,2.39113037109375,8.207980155944824,3.7872400283813477,-0.12083754688501358
1772883329898733600,2.407733642578125,7.846065521240234,3.8799619674682617,-0.2470589429140091
1772883329915364900,2.42436474609375,7.512266635894775,4.06839656829834,-0.30628129839897156
1772883329931945500,2.440945556640625,7.280761241912842,4.246063709259033,-0.0933200865983963
1772883329948550000,2.4575498046875,7.245467185974121,4.439284324645996,0.1908276081085205
1772883329965161200,2.4741611328125,7.287341594696045,4.576871395111084,0.4307080805301666
1772883329981761800,2.49076171875,7.4500532150268555,4.653441905975342,0.6502495408058167
1772883329998365200,2.507365234375,7.890930652618408,4.628915309906006,0.7046862840652466
1772883330014971000,2.523970947265625,8.231907844543457,4.565505504608154,0.6879364848136902
1772883330031576800,2.540576904296875,8.331808090209961,4.5391845703125,0.5485545992851257
1772883330048177000,2.557177001953125,8.182256698608398,4.563112735748291,0.39182472229003906
1772883330064786400,2.573786376953125,7.99800968170166,4.661816596984863,0.3170489966869354
1772883330081393000,2.590392822265625,8.045268058776855,4.71445894241333,0.3696911036968231
1772883330097983700,2.606983642578125,8.495118141174316,4.7473602294921875,0.5060819983482361
1772883330114588000,2.623587890625,8.883354187011719,4.740779876708984,0.600000262260437
1772883330131204400,2.640204345703125,8.974281311035156,4.794020175933838,0.7046862840652466
1772883330147801600,2.656801513671875,8.828319549560547,4.972285270690918,0.9128618240356445
1772883330164405000,2.673405029296875,8.770293235778809,5.061418056488037,1.0187442302703857
1772883330181011200,2.69001123046875,8.95513916015625,5.149952411651611,1.0277173519134521
1772883330197617700,2.70661767578125,9.093324661254883,5.166104316711426,0.9984052777290344
1772883330214236700,2.723236572265625,9.131011009216309,5.185246467590332,0.9984052777290344
1772883330230833200,2.739833251953125,9.243474006652832,5.282754421234131,0.9026923179626465
1772883330247445000,2.756445068359375,9.413962364196777,5.310271739959717,0.7250252366065979
1772883330264061700,2.773061767578125,9.663414001464844,5.185844898223877,0.46002015471458435
1772883330280648700,2.789648681640625,9.81117057800293,5.174479007720947,0.27696922421455383
1772883330297261000,2.806260986328125,9.754341125488281,5.154737949371338,0.3158525824546814
1772883330313866200,2.8228662109375,9.969097137451172,4.959722995758057,0.4468596279621124
1772883330330473000,2.839472900390625,10.704292297363281,4.6163530349731445,0.6556333899497986
1772883330347070200,2.8560703125,11.231310844421387,4.151547431945801,0.8835497498512268
1772883330363688400,2.8726884765625,11.167303085327148,3.8189449310302734,1.067797064781189
1772883330380288800,2.889288818359375,10.701300621032715,3.6466617584228516,1.0546365976333618
1772883330396896000,2.90589599609375,10.063613891601562,3.4301111698150635,0.9565308690071106
1772883330413497300,2.922497314453125,9.69212818145752,3.260220766067505,0.727418065071106
1772883330430105300,2.939105224609375,9.427123069763184,3.053241729736328,0.5796613097190857
1772883330446694400,2.9556943359375,9.147162437438965,2.8600213527679443,0.40737804770469666
1772883330463315700,2.972315673828125,8.72183895111084,2.7661030292510986,0.21774685382843018
1772883330479922200,2.988922119140625,8.222336769104004,2.7912275791168213,-0.04247260093688965
1772883330496525300,3.005525390625,7.639684677124023,2.901895761489868,-0.24885354936122894
1772883330513130200,3.022130126953125,7.3298139572143555,3.0855448246002197,-0.3409772217273712
1772883330529737000,3.038737060546875,7.485347270965576,3.1968109607696533,-0.29312077164649963
1772883330546344400,3.055344482421875,8.081160545349121,3.1591241359710693,-0.11545369029045105
1772883330562948900,3.071948974609375,8.717052459716797,3.2171499729156494,0.04905286431312561
1772883330579536000,3.088535888671875,8.887541770935059,3.3242287635803223,0.06340979784727097
1772883330596155000,3.10515478515625,8.836095809936523,3.486940860748291,-0.007178467698395252
1772883330612749800,3.121749755859375,8.858229637145996,3.6017963886260986,-0.001794616924598813
1772883330629354800,3.138354736328125,8.997611045837402,3.6119658946990967,0.13160525262355804
1772883330645961000,3.1549609375,9.492925643920898,3.562912940979004,0.3487538993358612
1772883330662566000,3.17156591796875,10.13300609588623,3.452843189239502,0.5928218364715576
1772883330679161600,3.18816162109375,10.575677871704102,3.36969256401062,0.7950153350830078
1772883330695775700,3.204775634765625,10.490134239196777,3.34995174407959,0.7668996453285217
1772883330712398600,3.221398681640625,9.7938232421875,3.415156126022339,0.6281159520149231
1772883330729002500,3.23800244140625,8.93838882446289,3.518047571182251,0.39421752095222473
1772883330745598700,3.2545986328125,8.179265975952148,3.6777684688568115,0.3517449200153351
1772883330762195200,3.2711953125,7.912466049194336,3.8428730964660645,0.29730820655822754
1772883330778817000,3.287817138671875,7.887939929962158,3.8901314735412598,0.32662028074264526
1772883330795422200,3.304422119140625,7.878368377685547,3.8763725757598877,0.2548356056213379
1772883330812028000,3.32102783203125,7.77607536315918,3.961916208267212,0.20338992774486542
1772883330828632800,3.3376328125,7.740182876586914,4.043272018432617,0.14656038582324982
1772883330845218800,3.35421875,7.733004570007324,4.158127784729004,0.11425728350877762
1772883330861826000,3.370825927734375,7.859824180603027,4.298107624053955,0.12861421704292297
1772883330878434300,3.387434326171875,8.117053031921387,4.400999069213867,0.22851456701755524
1772883330895058400,3.404058349609375,8.355138778686523,4.48414945602417,0.29012975096702576
1772883330911655700,3.42065576171875,8.5704927444458,4.514657974243164,0.34636107087135315
1772883330928269000,3.43726904296875,8.766105651855469,4.5828537940979,0.45583271980285645
1772883330944867600,3.45386767578125,8.903693199157715,4.692923545837402,0.6664010882377625
1772883330961478000,3.470477783203125,8.916254997253418,4.811966419219971,0.7052844762802124
1772883330978064100,3.487064208984375,8.761320114135742,4.854438781738281,0.5964110493659973
1772883330994686500,3.5036865234375,8.57348346710205,4.8915276527404785,0.49232324957847595
1772883331011291000,3.520290771484375,8.548358917236328,4.953741073608398,0.4785645306110382
1772883331027896800,3.536896728515625,8.625527381896973,4.920839786529541,0.5066801905632019
1772883331044502000,3.553501953125,8.71226692199707,4.921437740325928,0.534795880317688
1772883331061107200,3.570107177734375,8.73619556427002,4.88853645324707,0.5108676552772522
1772883331077695500,3.586695556640625,8.769695281982422,4.861019134521484,0.41934216022491455
1772883331094304800,3.6033046875,8.885149002075195,5.0356950759887695,0.24825534224510193
1772883331110909400,3.619909423828125,8.936594009399414,5.117051124572754,0.3008974492549896
1772883331127515100,3.63651513671875,9.375079154968262,5.199005603790283,0.275174617767334
1772883331144120600,3.65312060546875,9.635298728942871,5.31685209274292,0.19322042167186737
1772883331160715000,3.669715087890625,9.372686386108398,5.313860893249512,0.24227328598499298
1772883331177330700,3.68633056640625,9.238688468933105,5.36351203918457,0.39182472229003906
1772883331193939700,3.702939697265625,9.500701904296875,5.2354960441589355,0.5952146053314209
1772883331210556000,3.719555908203125,9.978668212890625,4.869992256164551,0.8811569213867188
1772883331227160800,3.736160888671875,10.348958015441895,4.322035789489746,1.0857433080673218
1772883331243765500,3.752765625,10.306485176086426,3.7950167655944824,1.1108678579330444
1772883331260349700,3.769349609375,9.9409818649292,3.342175006866455,0.9708877801895142
1772883331276973800,3.785973876953125,9.41336441040039,3.1034910678863525,0.7806583642959595
1772883331293580800,3.802580810546875,8.905488014221191,3.071187973022461,0.592223584651947
1772883331310189000,3.81918896484375,8.437690734863281,3.2057840824127197,0.4570291340351105
1772883331326793000,3.83579296875,8.094321250915527,3.393620729446411,0.4695914387702942
1772883331343397600,3.852397705078125,7.980661869049072,3.6538400650024414,0.6538388133049011
1772883331360003000,3.869003173828125,8.078168869018555,3.9014973640441895,0.9278169870376587
1772883331376594000,3.885593994140625,8.315656661987305,4.102494239807129,1.2388839721679688
1772883331393214000,3.9022138671875,8.277371406555176,4.237689018249512,1.6564314365386963
1772883331409819400,3.9188193359375,8.24387264251709,4.34536600112915,1.9298114776611328
1772883331426424800,3.9354248046875,8.525029182434082,4.405784606933594,1.8999011516571045
1772883331443029800,3.95202978515625,9.029315948486328,4.217350006103516,1.628315806388855
1772883331459635000,3.968635009765625,9.506086349487305,3.9565322399139404,1.3986048698425293
1772883331476240100,3.985240234375,9.804591178894043,3.775275945663452,1.1324033737182617
1772883331492846300,4.001846435546875,9.545567512512207,3.70767879486084,0.8321040868759155
1772883331509451300,4.018451171875,8.93958568572998,3.7471601963043213,0.4534398913383484
1772883331526056200,4.03505615234375,8.246265411376953,3.861417531967163,0.17587246000766754
1772883331542661600,4.05166162109375,7.744968891143799,4.029513359069824,0.050847481936216354
1772883331559251000,4.0682509765625,7.320840835571289,4.173680782318115,0.006580262444913387
1772883331575859000,4.08485888671875,7.036095142364502,4.314259052276611,0.03290131315588951
1772883331592452400,4.101452392578125,7.014559745788574,4.466203689575195,0.09152546525001526
1772883331609069300,4.1180693359375,7.098308563232422,4.614558696746826,0.19262222945690155
1772883331625675300,4.13467529296875,7.340581893920898,4.71744966506958,0.25423741340637207
1772883331642280200,4.1512802734375,7.463811874389648,4.800002098083496,0.268594354391098
1772883331658885600,4.1678857421875,7.548757076263428,4.8299126625061035,0.2105683982372284
1772883331675490800,4.18449072265625,7.672585964202881,4.883152961730957,0.2919243574142456
1772883331692134700,4.201134765625,7.978867053985596,4.933402061462402,0.42412781715393066
1772883331708715000,4.217715087890625,8.218149185180664,4.922036170959473,0.4181457459926605
1772883331725321000,4.234321044921875,8.23250675201416,4.871188640594482,0.19322042167186737
1772883331741925600,4.250925537109375,8.14217758178711,4.770689964294434,0.06340979784727097
1772883331758519000,4.26751904296875,8.271987915039062,4.7575297355651855,0.09152546525001526
1772883331775136300,4.28413623046875,8.38265609741211,4.800600528717041,0.2584248483181
1772883331791725300,4.300725341796875,8.440083503723145,4.782055854797363,0.267397940158844
1772883331808348000,4.317347900390625,8.429914474487305,4.797011375427246,0.1579262912273407
1772883331824953000,4.333953125,8.356932640075684,4.8436713218688965,0.16809579730033875
1772883331841557500,4.3505576171875,8.3359956741333,4.958526611328125,0.1788634955883026
1772883331858163000,4.367162841796875,8.319246292114258,5.049454212188721,0.13160525262355804
1772883331874768400,4.383768310546875,8.322237014770508,5.127220630645752,0.04127619042992592
1772883331891355600,4.400355712890625,8.447261810302734,5.057230472564697,-0.03170489892363548
1772883331907980000,4.41697998046875,8.602197647094727,4.935196876525879,-0.14356936514377594
1772883331924585000,4.4335849609375,8.689535140991211,4.864010334014893,-0.10648060590028763
1772883331941190000,4.45018994140625,8.725427627563477,4.993820667266846,-0.1052841991186142
1772883331957795600,4.466795654296875,8.971888542175293,5.078765869140625,-0.25423741340637207
1772883331974400800,4.48340087890625,9.262018203735352,4.9052863121032715,-0.2763710021972656
1772883331991005700,4.500005615234375,9.500103950500488,5.002793788909912,-0.1621137410402298
1772883332007594800,4.5165947265625,9.540184020996094,5.212165832519531,-0.0029910283628851175
1772883332024216800,4.533216796875,9.558130264282227,5.386841773986816,0.32303106784820557
1772883332040822300,4.549822265625,9.814760208129883,5.598008632659912,0.6149554252624512
1772883332057410000,4.56641015625,10.424331665039062,5.4281182289123535,1.1413763761520386
1772883332074019300,4.583019287109375,11.3509521484375,4.921437740325928,1.6582261323928833
1772883332090624300,4.599624267578125,12.030513763427734,4.280161380767822,2.0135602951049805
1772883332107229700,4.616229736328125,12.108879089355469,3.683152198791504,1.960319995880127
1772883332123835100,4.632835205078125,11.405987739562988,3.229114055633545,1.516451358795166
1772883332140440800,4.64944091796875,10.073184967041016,3.1250264644622803,0.8344969153404236
1772883332157046000,4.6660458984375,8.903095245361328,3.1070802211761475,0.30508488416671753
1772883332173651200,4.682651123046875,8.229515075683594,3.198007345199585,0.013160524889826775
1772883332190273500,4.6992734375,8.073982238769531,3.2548370361328125,-0.1339980661869049
1772883332206860000,4.715860107421875,8.065009117126465,3.263810157775879,-0.07597211748361588
1772883332223481600,4.732481689453125,8.050651550292969,3.2679975032806396,-0.028115665540099144
1772883332240086000,4.7490859375,8.026124954223633,3.3104701042175293,-0.02751746028661728
1772883332256692000,4.76569189453125,8.048258781433105,3.387638568878174,-0.008374879136681557
1772883332273296600,4.782296630859375,8.181658744812012,3.4552359580993652,0.02512463741004467
1772883332289902000,4.798902099609375,8.404789924621582,3.5395829677581787,0.019740786403417587
1772883332306478800,4.815478759765625,8.629714965820312,3.570091485977173,0.09511470049619675
1772883332323090000,4.83208984375,9.084949493408203,3.545564889907837,0.18305093050003052
1772883332339704300,4.848704345703125,9.383454322814941,3.490530014038086,0.27696922421455383
1772883332356309200,4.865309326171875,9.455238342285156,3.513859987258911,0.38644084334373474
1772883332372916000,4.881916015625,9.583852767944336,3.600599765777588,0.534795880317688
1772883332389517300,4.898517333984375,9.424132347106934,3.7088751792907715,0.527019202709198
1772883332406114300,4.9151142578125,9.032905578613281,3.858426570892334,0.46779683232307434
1772883332422734600,4.931734619140625,8.605188369750977,3.9774694442749023,0.519242525100708
1772883332439351000,4.94835107421875,8.292326927185059,4.107280254364014,0.6173482537269592
1772883332455955500,4.96495556640625,8.182256698608398,4.115654945373535,0.617946445941925
1772883332472561000,4.981560791015625,8.191828727722168,4.022335052490234,0.363709032535553
1772883332489166300,4.998166259765625,8.058428764343262,3.9314076900482178,0.1824527233839035
1772883332505756000,5.014755859375,7.8795647621154785,4.001397609710693,0.12622138857841492
1772883332522377700,5.031377685546875,7.724031448364258,4.1389851570129395,0.11844471842050552
1772883332538982400,5.047982421875,7.558926582336426,4.275375843048096,0.16869398951530457
1772883332555587600,5.064587646484375,7.465606689453125,4.403990268707275,0.12681959569454193
1772883332572193000,5.081193115234375,7.497311592102051,4.52781867980957,0.20877377688884735
1772883332588798200,5.097798095703125,7.645068168640137,4.572684288024902,0.24646073579788208
1772883332605388500,5.114388427734375,8.047062873840332,4.595416069030762,0.33080771565437317
1772883332622009900,5.131009765625,8.487939834594727,4.585246562957764,0.380458801984787
1772883332638614500,5.147614501953125,8.739784240722656,4.706682205200195,0.45643091201782227
1772883332655219700,5.1642197265625,8.809774398803711,4.835894584655762,0.5575276613235474
1772883332671825200,5.1808251953125,8.82652473449707,4.993222713470459,0.6735795736312866
1772883332688430300,5.197430419921875,8.84506893157959,5.097310543060303,0.8703892230987549
1772883332705053400,5.214053466796875,9.001798629760742,5.193621635437012,0.9750752449035645
1772883332721642000,5.23064208984375,9.203393936157227,5.148158073425293,0.9690931439399719
1772883332738247200,5.2472470703125,9.403793334960938,5.160720348358154,0.8769695162773132
1772883332754851800,5.263851806640625,9.42353343963623,5.375475883483887,0.9026923179626465
1772883332771457300,5.280457275390625,9.220742225646973,5.501697540283203,1.0097711086273193
1772883332788062500,5.2970625,9.207581520080566,5.646463394165039,0.8961120843887329
1772883332804647000,5.31364697265625,9.152546882629395,5.686542987823486,0.5712863802909851
1772883332821252400,5.33025244140625,8.882756233215332,5.718846321105957,0.3774677813053131
1772883332837862000,5.34686181640625,8.728418350219727,5.577071189880371,0.5395814776420593
1772883332854474200,5.36347412109375,8.95394229888916,5.20678186416626,1.052243709564209
1772883332871075800,5.380075927734375,9.548559188842773,4.722833633422852,1.3130614757537842
1772883332887681300,5.396681396484375,10.01456069946289,4.167698860168457,1.4021940231323242
1772883332904286700,5.41328662109375,10.051650047302246,3.6945180892944336,1.3316057920455933
1772883332920909300,5.429909423828125,9.667601585388184,3.4193434715270996,1.1210373640060425
1772883332937510700,5.4465107421875,8.85224723815918,3.4510483741760254,0.8961120843887329
1772883332954116900,5.463116943359375,8.073982238769531,3.61017107963562,0.8733802437782288
1772883332970721500,5.479721435546875,7.816154956817627,3.8458642959594727,0.9385846853256226
1772883332987327000,5.496326904296875,8.064410209655762,3.9152560234069824,1.0187442302703857
1772883333003916300,5.512916259765625,8.35453987121582,4.050450325012207,1.2047861814498901
1772883333020534300,5.5295341796875,8.406583786010742,4.178466320037842,1.4638092517852783
1772883333037154000,5.546154052734375,8.270791053771973,4.338187217712402,1.6666009426116943
1772883333053749200,5.562749267578125,8.096115112304688,4.48833703994751,1.7407784461975098
1772883333070353700,5.579353759765625,8.056633949279785,4.523033142089844,1.5978072881698608
1772883333086959400,5.59595947265625,8.416155815124512,4.403990268707275,1.389033555984497
1772883333103564500,5.612564453125,9.026325225830078,4.220340728759766,1.2215359210968018
1772883333120166100,5.629166259765625,9.388837814331055,4.009772777557373,1.1509476900100708
1772883333136779800,5.64577978515625,9.455238342285156,3.954737663269043,0.9397810697555542
1772883333153381400,5.66238134765625,8.964112281799316,4.009772777557373,0.5934200286865234
1772883333169985800,5.67898583984375,8.173882484436035,4.167100429534912,0.19262222945690155
1772883333186591500,5.695591552734375,7.517052173614502,4.396811485290527,-0.08374879509210587
1772883333203163100,5.7121630859375,7.135396957397461,4.602594375610352,-0.0323031060397625
1772883333219799600,5.728799560546875,7.153343200683594,4.762913703918457,0.29850462079048157
1772883333236411000,5.745410888671875,7.498507976531982,4.831707000732422,0.5413761138916016
1772883333253013500,5.762013427734375,7.715058326721191,4.804189682006836,0.6640082597732544
1772883333269618000,5.778617919921875,7.781459331512451,4.786841869354248,0.5054838061332703
1772883333286224100,5.79522412109375,7.737192153930664,4.754538536071777,0.28594231605529785
1772883333302812000,5.81181201171875,7.692924976348877,4.751547336578369,0.04666004329919815
1772883333319420700,5.828420654296875,7.634300708770752,4.789832592010498,-0.024526432156562805
1772883333336026000,5.845026123046875,7.628318786621094,4.861019134521484,0
1772883333352621000,5.86162109375,7.7180495262146,4.919643402099609,0.03349951654672623
1772883333369236700,5.87823681640625,7.886743545532227,4.882554531097412,0.09451649338006973
1772883333385842000,5.894842041015625,8.175078392028809,4.8233323097229,0.12143574655056
1772883333402434600,5.9114345703125,8.434102058410645,4.8299126625061035,0.20578274130821228
1772883333419070000,5.928070068359375,8.504690170288086,4.9022955894470215,0.2727817893028259
1772883333435672000,5.944672119140625,8.345566749572754,5.000401020050049,0.34636107087135315
1772883333452277800,5.96127783203125,8.23848819732666,5.1188459396362305,0.36191442608833313
1772883333468867600,5.97786767578125,8.308478355407715,5.205585479736328,0.3768695592880249
1772883333485487900,5.99448779296875,8.440681457519531,5.302495002746582,0.39601215720176697
1772883333502078700,6.01107861328125,8.511270523071289,5.379663467407227,0.41515472531318665
1772883333518699000,6.027698974609375,8.353343963623047,5.401198863983154,0.5024927258491516
1772883333535304700,6.0443046875,8.436494827270508,5.353342533111572,0.6017948985099792
1772883333551909400,6.060909423828125,8.918647766113281,5.420341491699219,0.6616154313087463
1772883333568498200,6.077498291015625,9.349356651306152,5.453242778778076,0.7268198728561401
1772883333585120000,6.0941201171875,9.509077072143555,5.358726501464844,0.7920243144035339
1772883333601709000,6.110708984375,9.491728782653809,5.4556355476379395,0.6059823632240295
1772883333618331600,6.12733154296875,9.462417602539062,5.484349727630615,0.5443671345710754
1772883333634936000,6.14393603515625,9.702896118164062,5.3593244552612305,0.3840480446815491
1772883333651542300,6.160542236328125,9.964909553527832,5.151747226715088,0.37148571014404297
1772883333668147000,6.17714697265625,10.30469036102295,4.769493579864502,0.6969096064567566
1772883333684752600,6.193752685546875,10.685748100280762,4.244269371032715,1.088136076927185
1772883333701342200,6.21034228515625,10.910673141479492,3.748356580734253,1.2023934125900269
1772883333717963500,6.226963623046875,10.673185348510742,3.34576416015625,0.9667003750801086
1772883333734568400,6.243568359375,10.097113609313965,3.0412776470184326,0.537188708782196
1772883333751174100,6.260174072265625,9.398408889770508,2.8839495182037354,0.11904292553663254
1772883333767775000,6.27677490234375,8.645268440246582,2.8977081775665283,-0.18723836541175842
1772883333784367600,6.29336767578125,7.971090316772461,3.087339401245117,-0.2829512655735016
1772883333800964400,6.30996435546875,7.520641803741455,3.397209882736206,-0.1824527233839035
1772883333817582000,6.32658203125,7.468597888946533,3.635295867919922,-0.12741780281066895
1772883333834187500,6.3431875,7.7461652755737305,3.7088751792907715,0.048454657196998596
1772883333850792400,6.35979248046875,7.898109436035156,3.8428730964660645,0.24466611444950104
1772883333867398000,6.37639794921875,8.068597793579102,3.954139471054077,0.3068794906139374
1772883333884003000,6.393003173828125,8.157132148742676,4.037290096282959,0.22552353143692017
1772883333900596500,6.409596435546875,8.309675216674805,4.016352653503418,0.09032905846834183
1772883333917237500,6.426237548828125,8.690134048461914,3.8913278579711914,0.08733802288770676
1772883333933833500,6.44283349609375,9.336793899536133,3.6532418727874756,0.16331014037132263
1772883333950416600,6.459416748046875,10.203594207763672,3.397808074951172,0.3475574851036072
1772883333967028700,6.47602880859375,11.00279712677002,3.1902308464050293,0.5042873620986938
1772883333983649000,6.49264892578125,11.10628604888916,3.04307222366333,0.45942193269729614
1772883334000238000,6.509238037109375,10.500304222106934,3.1148569583892822,0.243469700217247
1772883334016860700,6.525860595703125,9.494720458984375,3.386442184448242,0.21774685382843018
1772883334033465000,6.542465087890625,8.599804878234863,3.724428415298462,0.43130627274513245
1772883334050070800,6.55907080078125,8.027321815490723,3.9840497970581055,0.7232306599617004
1772883334066676000,6.575676025390625,7.916055679321289,4.096512317657471,0.8823533654212952
1772883334083281400,6.592281494140625,8.003992080688477,4.020540237426758,0.8715856671333313
1772883334099865900,6.608865966796875,8.090731620788574,3.9176487922668457,0.7316055297851562
1772883334116496100,6.62549609375,8.154141426086426,3.8428730964660645,0.6161518096923828
1772883334133097200,6.64209716796875,8.11406135559082,3.8763725757598877,0.49710890650749207
1772883334149703200,6.658703125,7.9489569664001465,3.999603033065796,0.4989035129547119
1772883334166280200,6.6752802734375,7.888537883758545,4.184448719024658,0.5724828243255615
1772883334182913800,6.691913818359375,7.9830546379089355,4.308875560760498,0.7208378314971924
1772883334199489300,6.7084892578125,8.307880401611328,4.3549370765686035,0.7627122402191162
1772883334216124400,6.72512451171875,8.560921669006348,4.37228536605835,0.7328019142150879
1772883334232729600,6.7417294921875,8.679964065551758,4.430909156799316,0.7752745151519775
1772883334249334800,6.758334716796875,8.745168685913086,4.536193370819092,0.8715856671333313
1772883334265930000,6.774929931640625,8.892327308654785,4.637888431549072,0.9290133714675903
1772883334282532900,6.791532958984375,9.058030128479004,4.753940582275391,1.0001999139785767
1772883334299124500,6.80812451171875,9.080761909484863,4.844269275665283,1.072582721710205
1772883334315743000,6.824742919921875,9.036494255065918,4.924428939819336,1.1312068700790405
1772883334332348200,6.84134814453125,9.213563919067383,4.931607246398926,1.1252248287200928
1772883334348954000,6.8579541015625,9.42473030090332,4.852644443511963,1.0612168312072754
1772883334365559000,6.87455908203125,9.501300811767578,4.849055290222168,1.0223335027694702
1772883334382164500,6.89116455078125,9.373882293701172,4.958526611328125,0.9188438653945923
1772883334398761200,6.90776123046875,9.221938133239746,4.923830986022949,0.924227774143219
1772883334415389400,6.924389404296875,9.202198028564453,4.923830986022949,0.8333004713058472
1772883334431994400,6.940994384765625,9.043074607849121,4.9986066818237305,0.8877372145652771
1772883334448599600,6.957599609375,8.868398666381836,5.002793788909912,1.2951152324676514
1772883334465208000,6.9742080078125,8.800801277160645,4.9501519203186035,1.7635103464126587
1772883334481810200,6.99081005859375,8.742775917053223,4.790431022644043,1.968694806098938
1772883334498386400,7.007386474609375,9.046664237976074,4.382454872131348,1.9112670421600342
1772883334515021300,7.024021240234375,9.562915802001953,3.8775691986083984,1.7563318014144897
1772883334531626500,7.04062646484375,9.818947792053223,3.473181962966919,1.7617156505584717
1772883334548230400,7.05723046875,9.755537986755371,3.253640651702881,1.6360924243927002
1772883334564838000,7.073837890625,9.435498237609863,3.13220477104187,1.3878371715545654
1772883334581443000,7.090443115234375,9.023334503173828,3.1004998683929443,1.222732424736023
1772883334598012400,7.107012451171875,8.762516975402832,3.2273194789886475,1.1868400573730469
1772883334614653700,7.12365380859375,8.590232849121094,3.5300116539001465,1.3525429964065552
1772883334631259000,7.1402587890625,8.309076309204102,3.789034605026245,1.5284154415130615
1772883334647864000,7.156864013671875,8.066205024719238,4.019941806793213,1.6271194219589233
1772883334664470000,7.173469970703125,8.088338851928711,4.1491546630859375,1.6947166919708252
1772883334681075000,7.190074951171875,7.939385414123535,4.250251293182373,1.9645073413848877
1772883334697680000,7.206679931640625,8.099106788635254,4.231706619262695,2.1308085918426514
1772883334714286300,7.223286376953125,8.672187805175781,4.037290096282959,2.111665964126587
1772883334730891000,7.23989111328125,9.250054359436035,3.776472330093384,1.9489539861679077
1772883334747496400,7.256496337890625,9.606584548950195,3.562314748764038,1.7156537771224976
1772883334764071700,7.27307177734375,9.285347938537598,3.466003656387329,1.3722838163375854
1772883334780693500,7.289693603515625,8.513663291931152,3.680161237716675,1.0671988725662231
1772883334797313800,7.306313720703125,7.813164234161377,3.970889091491699,0.8536394834518433
1772883334813904600,7.322904541015625,7.296314239501953,4.191029071807861,0.7381857633590698
1772883334830510000,7.339510009765625,7.261020183563232,4.249054908752441,0.6382854580879211
1772883334847115000,7.356114990234375,7.326822757720947,4.316651821136475,0.6436693072319031
1772883334863720400,7.372720458984375,7.338188648223877,4.493721008300781,0.7022934556007385
1772883334880323300,7.3893232421875,7.403393268585205,4.566701889038086,0.6400800347328186
1772883334896939300,7.405939208984375,7.731808185577393,4.600201606750488,0.47557350993156433
1772883334913550300,7.42255029296875,8.018348693847656,4.5714874267578125,0.2590230405330658
1772883334930155500,7.439155517578125,7.987242221832275,4.634897232055664,0.08255238085985184
1772883334946761200,7.45576123046875,7.851449489593506,4.738387107849121,0.07896314561367035
1772883334963333400,7.47233349609375,7.849056243896484,4.895715236663818,0.20937198400497437
1772883334979977700,7.488977783203125,7.99083137512207,5.024927616119385,0.36251261830329895
1772883334996562200,7.505562255859375,8.148757934570312,5.0638108253479,0.4624129831790924
1772883335013182500,7.522182373046875,8.24985408782959,5.078765869140625,0.5623133182525635
1772883335029788200,7.5387880859375,8.493922233581543,5.099703311920166,0.6376872062683105
1772883335046393000,7.55539306640625,8.746963500976562,5.136193752288818,0.6317051649093628
1772883335062983200,7.571983154296875,8.827720642089844,5.151148796081543,0.6364908218383789
1772883335079609000,7.588609130859375,8.692526817321777,5.2354960441589355,0.6903293132781982
1772883335096182300,7.605182373046875,8.677571296691895,5.2737812995910645,0.6717849373817444
1772883335112815000,7.621815185546875,8.782257080078125,5.285147190093994,0.6185446381568909
1772883335129429000,7.638428955078125,8.879764556884766,5.19960355758667,0.6747759580612183
1772883335146023000,7.65502294921875,8.93958568572998,5.108676433563232,0.745364248752594
1772883335162617000,7.6716171875,9.038289070129395,4.975276470184326,0.8009973764419556
1772883335179242500,7.688242431640625,9.302696228027344,4.868795871734619,0.698704183101654
1772883335195862300,7.7048623046875,9.302696228027344,5.023731231689453,0.45104706287384033
1772883335212447700,7.72144775390625,9.07119083404541,4.859224796295166,0.40319061279296875
1772883335229052700,7.738052734375,9.33739185333252,4.910670280456543,0.2967100143432617
1772883335245658000,7.754658203125,9.358927726745605,5.02133846282959,0.2877369225025177
1772883335262242600,7.77124267578125,8.992227554321289,5.00578498840332,0.4713860750198364
1772883335278855200,7.787855224609375,9.470193862915039,5.100301265716553,0.6945167779922485
1772883335295449000,7.804448974609375,10.216156005859375,5.0703911781311035,1.225723385810852
1772883335312066000,7.821066162109375,10.654641151428223,4.817948341369629,1.6707884073257446
1772883335328671200,7.837671142578125,10.729416847229004,4.444069862365723,1.8400806188583374
1772883335345276700,7.854276611328125,10.543375015258789,4.137190341949463,1.7096717357635498
1772883335361882000,7.870882080078125,10.229316711425781,3.892524242401123,1.322034478187561
1772883335378475500,7.8874755859375,9.748359680175781,3.641875982284546,0.9451649188995361
1772883335395129300,7.90412939453125,9.208778381347656,3.5365917682647705,0.7704889178276062
1772883335411712300,7.920712158203125,8.61894702911377,3.569493293762207,0.6975077986717224
1772883335428317200,7.937317138671875,7.979465484619141,3.6646077632904053,0.4911268353462219
1772883335444923000,7.9539228515625,7.503293514251709,3.690330743789673,0.19800607860088348
1772883335461512400,7.970512451171875,7.271788120269775,3.699902057647705,-0.054436713457107544
1772883335478121200,7.987121337890625,7.396214962005615,3.6263227462768555,-0.2566302418708801
1772883335494732300,8.003732177734374,7.664809226989746,3.5581271648406982,-0.38763725757598877
1772883335511326700,8.02032666015625,8.027321815490723,3.573082447052002,-0.542572557926178
1772883335527930600,8.0369306640625,8.425128936767578,3.5294134616851807,-0.5593222975730896
1772883335544540000,8.053539794921875,8.742177963256836,3.466003656387329,-0.5617151260375977
1772883335561150700,8.070150634765625,9.040083885192871,3.43908429145813,-0.38703906536102295
1772883335577766000,8.086765869140624,9.295517921447754,3.4534413814544678,-0.03888336941599846
1772883335594373000,8.103373046875,9.607781410217285,3.5162527561187744,0.29431718587875366
1772883335610977000,8.11997705078125,9.933204650878906,3.631706476211548,0.6424728631973267
1772883335627581700,8.136581787109375,10.100104331970215,3.755535125732422,0.9200403094291687
1772883335644187400,8.1531875,9.820143699645996,3.9146578311920166,0.9852447509765625
1772883335660765400,8.169765380859374,9.215357780456543,4.023531436920166,0.9846464991569519
1772883335677381600,8.186381591796875,8.644071578979492,4.140779495239258,1.0600204467773438
1772883335693983000,8.20298291015625,8.22712230682373,4.230510234832764,1.2448660135269165
1772883335710613500,8.219613525390624,7.867002487182617,4.3310089111328125,1.3674981594085693
1772883335727214000,8.236214111328126,7.584051132202148,4.362115859985352,1.311864972114563
1772883335743803000,8.252802978515625,7.299903869628906,4.384249210357666,1.1365907192230225
1772883335760401400,8.2694013671875,7.230511665344238,4.41475772857666,0.8309076428413391
1772883335777018400,8.286018310546876,7.2197442054748535,4.402195453643799,0.5970092415809631
1772883335793628400,8.30262841796875,7.16949462890625,4.497908592224121,0.5162515044212341
1772883335810228000,8.31922802734375,7.1611199378967285,4.693521499633789,0.5850451588630676
1772883335826833200,8.335833251953124,7.475776195526123,4.815555572509766,0.6939185857772827
1772883335843438300,8.352438232421875,7.968697547912598,4.848456859588623,0.8398807644844055
1772883335860030700,8.36903076171875,8.4502534866333,4.916652202606201,0.7704889178276062
1772883335876649200,8.385649169921875,8.539983749389648,4.900500774383545,0.5162515044212341
1772883335893272000,8.40227197265625,8.413164138793945,4.981258392333984,0.364905446767807
1772883335909873700,8.418873779296876,8.387441635131836,5.123033046722412,0.5760720372200012
1772883335926478800,8.435478759765624,8.641080856323242,5.257031440734863,0.9439685344696045
1772883335943084300,8.452084228515625,8.964112281799316,5.1774702072143555,1.109073281288147
1772883335959676700,8.4686767578125,9.22134017944336,4.984249591827393,1.072582721710205
1772883335976283000,8.485282958984374,9.489336013793945,4.9262237548828125,0.9128618240356445
1772883335992893400,8.5018935546875,9.455238342285156,5.157131195068359,0.7429714202880859
1772883336009513700,8.518513671875,9.278169631958008,5.150550842285156,0.7244270443916321
1772883336026111200,8.535111328125,9.4390869140625,5.385047435760498,0.3762713670730591
1772883336042716700,8.551716552734375,9.32183837890625,5.517251014709473,0.43549370765686035
1772883336059305700,8.5683056640625,9.217751502990723,5.580062389373779,0.7854440212249756
1772883336075928300,8.58492822265625,9.442676544189453,5.478367328643799,1.2185449600219727
1772883336092525300,8.601525390625,9.638887405395508,5.043471813201904,1.4488540887832642
1772883336109146600,8.618146728515624,9.811769485473633,4.4721856117248535,1.2903295755386353
1772883336125743600,8.63474365234375,9.833903312683105,3.9116668701171875,0.8560323119163513
1772883336142348500,8.6513486328125,9.657432556152344,3.477369546890259,0.45643091201782227
1772883336158939000,8.66793896484375,9.262616157531738,3.236292600631714,0.15553347766399384
1772883336175545000,8.684545166015624,8.806185722351074,3.290131092071533,-0.052043892443180084
1772883336192160300,8.70116015625,8.415556907653809,3.4438700675964355,-0.05802594870328903
1772883336208776400,8.7177763671875,8.210970878601074,3.6705899238586426,0.040677983313798904
1772883336225374700,8.734374755859376,8.067401885986328,3.964907169342041,0.17766708135604858
1772883336241964300,8.75096435546875,7.872386455535889,4.237689018249512,0.47198426723480225
1772883336258569700,8.76756982421875,7.837092399597168,4.49252462387085,0.8763712644577026
1772883336275178800,8.7841787109375,7.825128078460693,4.756931304931641,1.337587833404541
1772883336291784400,8.800784423828125,7.813164234161377,4.975276470184326,1.5397813320159912
1772883336308389600,8.8173896484375,8.230711936950684,4.851448059082031,1.4123635292053223
1772883336324995000,8.8339951171875,8.868398666381836,4.4955153465271,1.3052847385406494
1772883336341600300,8.850600341796875,9.306285858154297,4.249652862548828,0.9092726111412048
1772883336358205700,8.867205810546874,9.54197883605957,3.9840497970581055,0.3607180118560791
1772883336374814500,8.883814453125,9.329615592956543,3.857828378677368,-0.26081767678260803
1772883336391426600,8.900426513671874,8.670392990112305,3.930211305618286,-0.6394818425178528
1772883336408040200,8.917040283203125,8.161917686462402,4.174877166748047,-0.8356932997703552
1772883336424643600,8.9336435546875,7.929814338684082,4.292723655700684,-0.9194421172142029
1772883336441246200,8.95024609375,7.905287742614746,4.34955358505249,-0.8422735929489136
1772883336457836000,8.9668359375,7.976474285125732,4.406980991363525,-0.760917603969574
1772883336474457600,8.98345751953125,8.076375007629395,4.483551502227783,-0.6556333899497986
1772883336491062300,9.000062255859374,8.103293418884277,4.565505504608154,-0.6406782865524292
1772883336507669000,9.0166689453125,8.130212783813477,4.67078971862793,-0.5970092415809631
1772883336524273200,9.033273193359374,8.080561637878418,4.7796630859375,-0.5629115104675293
1772883336540878600,9.049878662109375,8.051250457763672,4.831707000732422,-0.5527420043945312
1772883336557467600,9.066467529296874,8.156534194946289,4.786243438720703,-0.6634100675582886
1772883336574089500,9.08308935546875,8.157132148742676,4.70608377456665,-0.8267202377319336
1772883336590693000,9.099693115234375,8.240283012390137,4.549952030181885,-0.9577272534370422
1772883336607302400,9.116302490234375,8.509475708007812,4.4997029304504395,-0.882951557636261
1772883336623909400,9.132909423828124,8.984451293945312,4.466203689575195,-0.7950153350830078
1772883336640511000,9.149510986328124,9.404391288757324,4.274777889251709,-0.8512466549873352
1772883336657118500,9.166118408203126,9.391230583190918,4.161118507385254,-0.9954141974449158
1772883336673721900,9.182721923828124,9.17467975616455,4.2484564781188965,-0.8739784955978394
1772883336690328600,9.19932861328125,9.195018768310547,4.31306266784668,-0.5724828243255615
1772883336706932200,9.21593212890625,9.33440113067627,4.29033088684082,-0.5066801905632019
1772883336723521000,9.23252099609375,9.32722282409668,4.423730850219727,-0.46719861030578613
1772883336740129800,9.2491298828125,9.138788223266602,4.545764923095703,-0.4127618968486786
1772883336756739300,9.2657392578125,8.995817184448242,4.759324073791504,-0.39601215720176697
1772883336773341000,9.2823408203125,8.795417785644531,4.9776692390441895,-0.4217349886894226
1772883336789946400,9.2989462890625,9.546764373779297,4.7503509521484375,-0.32721850275993347
1772883336806551800,9.3155517578125,10.16590690612793,4.5822553634643555,-0.5617151260375977
