time,seconds_elapsed,z,y,x
1772883678776876500,0.15787646484375,9.1052885055542,3.438486099243164,0.11425728350877762
1772883678793493000,0.174492919921875,8.673981666564941,3.541975736618042,0.28953152894973755
1772883678810099700,0.191099609375,8.394619941711426,3.6909289360046387,0.4307080805301666
1772883678826702600,0.20770263671875,8.426922798156738,3.7956149578094482,0.5557330846786499
1772883678843308000,0.22430810546875,8.828917503356934,3.8368911743164062,0.7022934556007385
1772883678859918000,0.24091796875,9.151947975158691,3.7531423568725586,0.8715856671333313
1772883678876513300,0.25751318359375,9.279964447021484,3.793820381164551,0.7567301392555237
1772883678893120800,0.274120849609375,9.437292098999023,4.0079779624938965,0.5515456199645996
1772883678909737500,0.290737548828125,9.539586067199707,4.106083869934082,0.3607180118560791
1772883678926333200,0.307333251953125,9.983454704284668,4.328616142272949,0.09152546525001526
1772883678942951200,0.323951171875,10.393224716186523,4.488935470581055,0.33918261528015137
1772883678959560200,0.340560302734375,10.789237022399902,4.497908592224121,0.9445667266845703
1772883678976143400,0.357143310546875,10.993824005126953,4.265206336975098,1.5637096166610718
1772883678992767200,0.373767333984375,10.886146545410156,3.7537405490875244,1.9094724655151367
1772883679009373200,0.390373291015625,10.448858261108398,3.084348440170288,1.8592232465744019
1772883679025957600,0.40695751953125,10.207781791687012,2.544168710708618,1.4739787578582764
1772883679042584300,0.423584228515625,10.066006660461426,2.0578274726867676,1.1126625537872314
1772883679059193000,0.440193115234375,10.003194808959961,1.781456470489502,0.8859425783157349
1772883679075782100,0.4567822265625,9.927223205566406,1.709073543548584,0.7902296781539917
1772883679092387300,0.47338720703125,9.605986595153809,1.7766708135604858,0.8739784955978394
1772883679109006800,0.4900068359375,9.190832138061523,1.9920248985290527,0.9254241585731506
1772883679125599000,0.506598876953125,8.827720642089844,2.2271196842193604,1.0061819553375244
1772883679142211300,0.52321142578125,8.556135177612305,2.4670002460479736,1.1335997581481934
1772883679158822100,0.539822265625,8.493922233581543,2.8043880462646484,1.3615161180496216
1772883679175407400,0.556407470703125,8.23250675201416,3.0107691287994385,1.5314065217971802
1772883679192029700,0.57302978515625,7.934599876403809,3.111865758895874,1.6342978477478027
1772883679208627200,0.589627197265625,8.019545555114746,3.198007345199585,1.7066807746887207
1772883679225241900,0.606241943359375,8.211568832397461,3.181257724761963,1.700698733329773
1772883679241847600,0.62284765625,8.449654579162598,3.1615169048309326,1.521835207939148
1772883679258417200,0.639417236328125,8.62193775177002,3.149552822113037,1.4398809671401978
1772883679275042600,0.65604248046875,8.590831756591797,3.193819999694824,1.2436695098876953
1772883679291645200,0.672645263671875,8.25703239440918,3.2273194789886475,0.8153542876243591
1772883679308251000,0.6892509765625,7.740182876586914,3.326023578643799,0.3122633695602417
1772883679324857300,0.705857421875,7.5673017501831055,3.4893336296081543,-0.02512463741004467
1772883679341460000,0.7224599609375,7.578667640686035,3.6197423934936523,-0.09092725813388824
1772883679358070000,0.739070068359375,7.515257835388184,3.7334015369415283,-0.017946170642971992
1772883679374654500,0.755654541015625,7.5086774826049805,3.84765887260437,0.04486542567610741
1772883679391305700,0.7723056640625,7.785646915435791,3.9260237216949463,0.17288143932819366
1772883679407895600,0.7888955078125,8.139185905456543,3.9535412788391113,0.20458634197711945
1772883679424499500,0.80549951171875,8.3300142288208,3.9559340476989746,0.15553347766399384
1772883679441107000,0.82210693359375,8.319844245910645,4.00319242477417,0.20398813486099243
1772883679457711900,0.8387119140625,8.424530029296875,4.066003799438477,0.2566302418708801
1772883679474320600,0.855320556640625,8.523832321166992,4.119842529296875,0.26620152592658997
1772883679490916600,0.87191650390625,8.590831756591797,4.101896286010742,0.20338992774486542
1772883679507526000,0.88852587890625,8.560921669006348,4.149752616882324,0.18005990982055664
1772883679524123000,0.905122802734375,8.569295883178711,4.235894203186035,0.17108681797981262
1772883679540734200,0.921734130859375,8.548358917236328,4.302893161773682,0.14775680005550385
1772883679557342200,0.93834228515625,8.864211082458496,4.30169677734375,0.11246266216039658
1772883679573913000,0.9549130859375,9.20159912109375,4.18564510345459,0.1333998590707779
1772883679590552300,0.97155224609375,9.384052276611328,4.1491546630859375,0.13698910176753998
1772883679607166000,0.988166015625,9.442676544189453,4.134199142456055,0.31345975399017334
1772883679623763000,1.004762939453125,9.388239860534668,4.051048755645752,0.4707878530025482
1772883679640365000,1.021364990234375,9.726823806762695,4.0181474685668945,0.2727817893028259
1772883679656970800,1.037970703125,10.15573787689209,4.024727821350098,-0.01196411345154047
1772883679673575700,1.05457568359375,10.524231910705566,3.9397823810577393,-0.25363919138908386
1772883679690196500,1.071196533203125,10.651650428771973,4.022933006286621,-0.2871387302875519
1772883679706795300,1.087795166015625,10.667801856994629,4.241278171539307,-0.07537391036748886
1772883679723386600,1.10438671875,10.642078399658203,4.505086898803711,0.42412781715393066
1772883679740002600,1.12100244140625,10.76830005645752,4.37228536605835,1.0301101207733154
1772883679756581400,1.137581298828125,10.937592506408691,3.9254255294799805,1.4847464561462402
1772883679773209000,1.154208984375,11.175080299377441,3.2721848487854004,1.5361921787261963
1772883679789787400,1.170787353515625,11.417951583862305,2.7361927032470703,1.2580264806747437
1772883679806402800,1.18740283203125,11.388639450073242,2.338385820388794,0.7244270443916321
1772883679823012900,1.204012939453125,10.567302703857422,2.042274236679077,0.11964113265275955
1772883679839596000,1.220595947265625,9.33739185333252,2.0961127281188965,-0.4660021960735321
1772883679856240600,1.23724072265625,8.324629783630371,2.4269204139709473,-0.7447660565376282
1772883679872835000,1.2538349609375,7.9489569664001465,2.819941520690918,-0.6969096064567566
1772883679889444000,1.270444091796875,8.036892890930176,3.0065815448760986,-0.6436693072319031
1772883679906046000,1.2870458984375,8.309675216674805,3.0239295959472656,-0.5874379873275757
1772883679922657300,1.3036572265625,8.504690170288086,3.0975089073181152,-0.544965386390686
1772883679939259100,1.320259033203125,8.727222442626953,3.3128628730773926,-0.25304099917411804
1772883679955850000,1.33685009765625,9.072386741638184,3.432504177093506,0.17168502509593964
1772883679972461000,1.3534609375,9.634700775146484,3.421736478805542,0.48873403668403625
1772883679989075700,1.37007568359375,10.27178955078125,3.1130621433258057,0.4833501875400543
1772883680005684200,1.386684326171875,10.683953285217285,2.736790895462036,0.22911277413368225
1772883680022274000,1.403274169921875,10.382457733154297,2.4197418689727783,-0.03469592705368996
1772883680038894300,1.419894287109375,9.625727653503418,2.3509483337402344,-0.2602194547653198
1772883680063778600,1.444778564453125,8.687142372131348,2.6662025451660156,-0.2189432680606842
1772883680080416000,1.461416015625,8.474181175231934,2.8582265377044678,-0.03469592705368996
1772883680097009700,1.478009765625,8.444869041442871,2.971287488937378,0.17647066712379456
1772883680113611300,1.494611328125,8.367700576782227,3.0969107151031494,0.4695914387702942
1772883680130219000,1.511218994140625,8.510671615600586,3.2440693378448486,0.8237292170524597
1772883680146815500,1.5278154296875,8.7505521774292,3.245863914489746,0.9278169870376587
1772883680163427600,1.544427490234375,8.520841598510742,3.1686954498291016,0.7034898400306702
1772883680180019700,1.561019775390625,8.030911445617676,3.193819999694824,0.50129634141922
1772883680196639500,1.577639404296875,7.584051132202148,3.2763724327087402,0.3846462368965149
1772883680213242400,1.594242431640625,7.547560691833496,3.4097721576690674,0.3475574851036072
1772883680229849900,1.610849853515625,7.680960655212402,3.45882511138916,0.4331009089946747
1772883680246435300,1.627435302734375,7.7222371101379395,3.5736806392669678,0.4624129831790924
1772883680263049700,1.6440498046875,7.5433735847473145,3.649054527282715,0.3924229145050049
1772883680279650800,1.66065087890625,7.494320392608643,3.7016966342926025,0.3355933725833893
1772883680296256300,1.67725634765625,7.526025295257568,3.7782669067382812,0.35533416271209717
1772883680312861000,1.69386083984375,7.654041290283203,3.888935089111328,0.4701896607875824
1772883680329467000,1.710466796875,7.794619560241699,3.906881093978882,0.7657032608985901
1772883680346126300,1.727126220703125,8.410173416137695,3.8297126293182373,1.043868899345398
1772883680362688800,1.743688720703125,9.227322578430176,3.6329028606414795,1.0187442302703857
1772883680379295200,1.760295166015625,10.04148006439209,3.5473594665527344,0.8793623447418213
1772883680395951900,1.776951904296875,10.707880973815918,3.3888349533081055,0.6592226624488831
1772883680412504300,1.79350439453125,11.124232292175293,3.2159535884857178,0.13459627330303192
1772883680429113300,1.81011328125,11.086545944213867,3.064607620239258,-0.1866401731967926
1772883680445704400,1.826704345703125,11.124232292175293,3.005385160446167,-0.48873403668403625
1772883680462319600,1.843319580078125,11.428120613098145,2.6021945476531982,-0.527019202709198
1772883680478926800,1.8599267578125,11.647662162780762,2.004587173461914,-0.8817551732063293
1772883680495529200,1.876529296875,11.641081809997559,1.2508480548858643,-1.179063320159912
1772883680512126500,1.89312646484375,11.576476097106934,0.7645068168640137,-1.4979069232940674
1772883680528741400,1.909741455078125,11.510075569152832,0.6275177597999573,-1.7521443367004395
1772883680545331000,1.9263310546875,11.539386749267578,0.6364908218383789,-1.6660027503967285
1772883680561953800,1.942953857421875,10.995019912719727,0.6251249313354492,-1.5433706045150757
1772883680578553300,1.95955322265625,9.949356079101562,0.8039883971214294,-1.4213366508483887
1772883680595147000,1.97614697265625,8.933603286743164,1.1976077556610107,-1.1784651279449463
1772883680611775200,1.992775146484375,8.434700012207031,1.6671991348266602,-0.7226324677467346
1772883680628363500,2.009363525390625,8.601000785827637,2.1337995529174805,-0.24646073579788208
1772883680644966100,2.025966064453125,8.893523216247559,2.2677977085113525,0.18305093050003052
1772883680661583600,2.04258349609375,8.95095157623291,2.3336002826690674,0.4127618968486786
1772883680678191400,2.05919140625,8.49870777130127,2.321636199951172,0.7022934556007385
1772883680694777300,2.07577734375,8.549555778503418,2.375474691390991,0.5778666734695435
1772883680711395800,2.092395751953125,9.305686950683594,2.1200408935546875,0.6197410821914673
1772883680727987000,2.108987060546875,10.007980346679688,1.954936146736145,0.7004988193511963
1772883680744585500,2.12558544921875,10.187442779541016,1.8370895385742188,0.7226324677467346
1772883680761198600,2.142198486328125,9.564111709594727,1.8556339740753174,0.5736792087554932
1772883680777804000,2.158803955078125,8.748159408569336,2.122433662414551,0.24047867953777313
1772883680794411000,2.175410888671875,8.434102058410645,2.4699912071228027,0.03409772366285324
1772883680811014000,2.192013916015625,8.188837051391602,2.740380048751831,-0.053240302950143814
1772883680827620600,2.20862060546875,7.921439170837402,2.9629125595092773,-0.11246266216039658
1772883680844226000,2.22522607421875,7.851449489593506,3.129812002182007,-0.1010967567563057
1772883680860842500,2.241842529296875,7.83111047744751,3.200998544692993,-0.08135596662759781
1772883680877445400,2.2584453125,7.816753387451172,3.214757204055786,-0.03349951654672623
1772883680894053600,2.2750537109375,8.023134231567383,3.183650493621826,-0.039481572806835175
1772883680910643200,2.291643310546875,8.436494827270508,3.073580741882324,-0.028115665540099144
1772883680927264800,2.3082646484375,8.719446182250977,3.0101709365844727,-0.11186445504426956
1772883680943857200,2.324857177734375,8.660223007202148,3.0628130435943604,-0.2350948303937912
1772883680960472600,2.34147265625,8.364709854125977,3.1435706615448,-0.5341976284980774
1772883680977085700,2.358085693359375,8.315058708190918,3.108276605606079,-0.9744769930839539
1772883680993683500,2.374683349609375,8.674580574035645,2.999403238296509,-1.2065808773040771
1772883681010290000,2.3912900390625,9.226723670959473,2.9186453819274902,-1.1670992374420166
1772883681026896600,2.407896728515625,10.124032974243164,2.864806890487671,-0.9481559991836548
1772883681043494100,2.424494140625,11.10329532623291,2.702693223953247,-0.8925228714942932
1772883681060110000,2.441110107421875,11.653644561767578,2.6470601558685303,-1.0348957777023315
1772883681076711200,2.457711181640625,11.81874942779541,2.7553353309631348,-1.144965648651123
1772883681093315300,2.4743154296875,11.910274505615234,2.971287488937378,-1.1150553226470947
1772883681109921800,2.490921875,11.890533447265625,3.06999135017395,-0.8991031050682068
1772883681126527500,2.507527587890625,12.353545188903809,2.9724838733673096,-0.6299105882644653
1772883681143115300,2.524115234375,13.045668601989746,2.7038896083831787,-0.22432711720466614
1772883681159736300,2.540736328125,13.527822494506836,2.41375994682312,0.19142581522464752
1772883681176341800,2.557341796875,13.320245742797852,2.0368902683258057,0.3481557071208954
1772883681192947000,2.573947021484375,12.447463035583496,1.6253247261047363,0.33080771565437317
1772883681209534200,2.5905341796875,11.579466819763184,1.3836497068405151,0.05144568532705307
1772883681226139400,2.607139404296875,10.517651557922363,1.287936806678772,-0.14895321428775787
1772883681242736000,2.623736083984375,9.297910690307617,1.4488540887832642,-0.34636107087135315
1772883681259354000,2.64035400390625,8.183453559875488,1.6809579133987427,-0.36729827523231506
1772883681275957200,2.656957275390625,7.517650604248047,1.989033818244934,-0.3038884699344635
1772883681292564700,2.673564697265625,7.355536937713623,2.2121646404266357,-0.31046873331069946
1772883681309169200,2.690169189453125,7.53559684753418,2.3090739250183105,-0.2632105052471161
1772883681325764000,2.70676416015625,7.862216949462891,2.2785654067993164,-0.18903298676013947
1772883681342380300,2.72338037109375,8.406583786010742,2.1020946502685547,-0.08315058797597885
1772883681359004000,2.74000390625,8.952147483825684,1.8592232465744019,-0.0975075215101242
1772883681375596500,2.756596435546875,9.093324661254883,1.6372889280319214,-0.31046873331069946
1772883681392207000,2.77320703125,8.919844627380371,1.3794622421264648,-0.5599204897880554
1772883681408813000,2.78981298828125,8.900702476501465,1.2855439186096191,-0.8189435601234436
1772883681425417700,2.806417724609375,8.828917503356934,1.2939188480377197,-0.7800601720809937
1772883681442007000,2.823007080078125,8.621339797973633,1.4249259233474731,-0.7256234884262085
1772883681458628400,2.83962841796875,8.163114547729492,1.6157535314559937,-0.6592226624488831
1772883681475228200,2.856228271484375,7.576274871826172,1.8664016723632812,-0.486939400434494
1772883681491842800,2.8728427734375,7.156334400177002,2.11405873298645,-0.28654050827026367
1772883681508419000,2.889419189453125,7.264011383056641,2.3330020904541016,-0.022133609279990196
1772883681525048600,2.906048583984375,7.704888820648193,2.383251428604126,0.2626122832298279
1772883681541639400,2.922639404296875,8.204988479614258,2.297109842300415,0.3930211067199707
1772883681558258700,2.9392587890625,8.781659126281738,2.2205393314361572,0.5228317379951477
1772883681574866400,2.955866455078125,9.236295700073242,2.2019951343536377,0.50129634141922
1772883681591467800,2.9724677734375,9.373284339904785,2.266601324081421,0.3762713670730591
1772883681608083200,2.989083251953125,9.110671997070312,2.4329023361206055,0.18305093050003052
1772883681624678400,3.005678466796875,8.639883995056152,2.758326292037964,0.12143574655056
1772883681641277400,3.02227734375,8.513663291931152,3.1435706615448,0.25363919138908386
1772883681657891000,3.03889111328125,8.96112060546875,3.3613176345825195,0.5497509837150574
1772883681674494000,3.055493896484375,9.929018020629883,3.4259238243103027,0.9559326171875
1772883681691102000,3.07210205078125,10.818549156188965,3.252444267272949,1.088136076927185
1772883681707691000,3.08869091796875,11.278569221496582,2.923431158065796,0.9684949517250061
1772883681724298000,3.105298095703125,11.56690502166748,2.7571299076080322,0.6741777658462524
1772883681740889600,3.1218896484375,11.859427452087402,2.609373092651367,0.35054850578308105
1772883681757507800,3.1385078125,11.757732391357422,2.620140790939331,0.11724831163883209
1772883681774105300,3.155105224609375,11.340185165405273,2.898306369781494,0.04486542567610741
1772883681790717000,3.171717041015625,10.956136703491211,3.2937204837799072,0.3080759048461914
1772883681807310300,3.188310302734375,10.97468090057373,3.463610887527466,0.6681957244873047
1772883681823931600,3.204931640625,11.146964073181152,3.267399311065674,0.8524430394172668
1772883681840519700,3.221519775390625,11.292327880859375,2.6524438858032227,0.760917603969574
1772883681857152500,3.238152587890625,11.260025024414062,1.9465612173080444,0.43549370765686035
1772883681873757400,3.25475732421875,10.962717056274414,1.3298112154006958,-0.046061836183071136
1772883681890363100,3.271363037109375,10.40758228302002,0.9212366938591003,-0.4953143000602722
1772883681906952200,3.2879521484375,9.5264253616333,0.8327022790908813,-0.8015955686569214
1772883681923572700,3.30457275390625,8.535198211669922,1.0863415002822876,-0.9475577473640442
1772883681940196600,3.321196533203125,7.709076404571533,1.470389485359192,-1.0498509407043457
1772883681956774700,3.337774658203125,7.507481098175049,1.7509479522705078,-1.0516455173492432
1772883681973376300,3.354376220703125,7.749754428863525,1.9286150932312012,-0.8458628058433533
1772883681989977000,3.37097705078125,8.164310455322266,2.1403799057006836,-0.4498506486415863
1772883682006569000,3.38756884765625,8.435895919799805,2.434098720550537,0.2584248483181
1772883682023203300,3.404203369140625,8.621339797973633,2.779263496398926,1.0301101207733154
1772883682039788500,3.42078857421875,9.271589279174805,2.9928228855133057,1.5493526458740234
1772883682056414700,3.437414794921875,10.322636604309082,2.8731818199157715,1.7485551834106445
1772883682073014500,3.4540146484375,10.972288131713867,2.4496521949768066,1.7413766384124756
1772883682089628200,3.470628173828125,10.925628662109375,2.0069799423217773,1.3704891204833984
1772883682106212600,3.487212646484375,10.118050575256348,1.721037745475769,0.7507480978965759
1772883682122834400,3.50383447265625,9.161520004272461,1.7820546627044678,0.2356930375099182
1772883682139439000,3.520439208984375,8.541778564453125,2.0548365116119385,-0.03170489892363548
1772883682156045300,3.53704541015625,7.952546119689941,2.2989044189453125,-0.2225325107574463
1772883682172649500,3.5536494140625,7.532007694244385,2.5196423530578613,-0.20877377688884735
1772883682189255000,3.5702548828125,7.448258876800537,2.675773859024048,-0.10707881301641464
1772883682205842700,3.5868427734375,7.269993305206299,2.7972097396850586,0.02392822690308094
1772883682222451500,3.603451416015625,7.439883708953857,2.9419753551483154,0.07657032459974289
1772883682239047400,3.62004736328125,7.875377655029297,2.974278450012207,0.2231307178735733
1772883682255658000,3.636657958984375,8.296514511108398,3.0209386348724365,0.32602208852767944
1772883682272271000,3.65327099609375,8.749954223632812,3.087937593460083,0.38644084334373474
1772883682288872000,3.669871826171875,8.959325790405273,3.1477582454681396,0.3517449200153351
1772883682305477000,3.68647705078125,8.8648099899292,3.276970624923706,0.21954147517681122
1772883682322099500,3.703099365234375,8.85224723815918,3.3744781017303467,-0.019142581149935722
1772883682338698000,3.719697998046875,8.964112281799316,3.476771354675293,-0.1094716340303421
1772883682355306200,3.73630615234375,9.374481201171875,3.5294134616851807,-0.1495514214038849
1772883682371911000,3.752910888671875,9.891928672790527,3.5156545639038086,-0.12442677468061447
1772883682388516600,3.7695166015625,10.204790115356445,3.4139597415924072,-0.16510476171970367
1772883682405105000,3.78610498046875,10.585846900939941,3.218346357345581,-0.2787638306617737
1772883682421746000,3.802745849609375,11.178071022033691,3.004786968231201,-0.3170489966869354
1772883682438319600,3.819319580078125,11.543574333190918,2.8797619342803955,-0.3774677813053131
1772883682454937300,3.835937255859375,11.45683479309082,3.090928554534912,-0.5712863802909851
1772883682471541800,3.852541748046875,10.805987358093262,3.3990044593811035,-0.45523449778556824
1772883682488147000,3.86914697265625,10.684551239013672,3.7567315101623535,-0.44745782017707825
1772883682504736000,3.885736083984375,10.626524925231934,3.8213376998901367,-0.29312077164649963
1772883682521339400,3.90233935546875,10.623534202575684,3.786641836166382,-0.12143574655056
1772883682537955000,3.918955078125,10.905887603759766,3.6532418727874756,0.20578274130821228
1772883682554568000,3.93556787109375,11.312666893005371,3.2620155811309814,0.5593222975730896
1772883682571161900,3.952161865234375,11.683554649353027,2.7517459392547607,0.8739784955978394
1772883682587778000,3.968778076171875,11.73141098022461,2.2821545600891113,1.0426725149154663
1772883682604408800,3.985408935546875,11.319247245788574,2.0297117233276367,0.9092726111412048
1772883682620971800,4.0019716796875,10.360921859741211,1.9926230907440186,0.6514459848403931
1772883682637576700,4.01857666015625,9.136993408203125,2.115255117416382,0.43908295035362244
1772883682654202400,4.035202392578125,8.328817367553711,2.303689956665039,0.32542386651039124
1772883682670792200,4.051792236328125,7.957930088043213,2.4197418689727783,0.29012975096702576
1772883682687388000,4.068387939453125,7.669594764709473,2.520838737487793,0.35473597049713135
1772883682704004000,4.085004150390625,7.5086774826049805,2.6727828979492188,0.31824541091918945
1772883682720605700,4.101605712890625,7.627122402191162,2.7361927032470703,0.3565305769443512
1772883682737222700,4.11822265625,7.921439170837402,2.661417007446289,0.48813581466674805
1772883682753816000,4.134816162109375,8.274380683898926,2.4598217010498047,0.47976094484329224
1772883682770420700,4.151420654296875,8.373682975769043,2.2085752487182617,0.28594231605529785
1772883682787026200,4.168026123046875,8.317451477050781,2.0518453121185303,0.04127619042992592
1772883682803630600,4.184630615234375,8.302495956420898,2.0057835578918457,-0.16450655460357666
1772883682820236800,4.20123681640625,8.224729537963867,2.02492618560791,-0.3026920557022095
1772883682836855000,4.21785498046875,8.126026153564453,2.187039852142334,-0.2961117923259735
1772883682853460500,4.23446044921875,8.305487632751465,2.4023938179016113,-0.0849452018737793
1772883682870065200,4.251065185546875,8.509475708007812,2.602792739868164,0.22612173855304718
1772883682886670000,4.267670166015625,8.732605934143066,2.785245656967163,0.503689169883728
1772883682903272400,4.2842724609375,8.947959899902344,2.871387243270874,0.7423732280731201
1772883682919883800,4.3008837890625,9.138189315795898,3.014956474304199,0.9667003750801086
1772883682936486000,4.31748583984375,9.472586631774902,3.1130621433258057,1.171286702156067
1772883682953090600,4.334090576171875,9.56650447845459,3.2374889850616455,1.2580264806747437
1772883682969679600,4.3506796875,9.455238342285156,3.3032915592193604,1.301695466041565
1772883682986301200,4.36730126953125,9.229715347290039,3.301496982574463,1.1886346340179443
1772883683002919200,4.383919189453125,9.049654960632324,3.3589248657226562,0.9320043921470642
1772883683019495000,4.400494873046875,8.964710235595703,3.531208038330078,0.8380861282348633
1772883683036099600,4.417099609375,8.96650505065918,3.6939198970794678,0.8679963946342468
1772883683052722200,4.43372216796875,9.061619758605957,3.761517286300659,0.9152546525001526
1772883683069310200,4.450310302734375,9.29731273651123,3.7058839797973633,0.9613165259361267
1772883683085931800,4.466931884765625,9.476774215698242,3.658625841140747,1.1850453615188599
1772883683102520300,4.483520263671875,9.521040916442871,3.680161237716675,1.5050854682922363
1772883683119148000,4.50014794921875,9.55214786529541,3.6496527194976807,1.7772690057754517
1772883683135753700,4.516753662109375,9.684351921081543,3.521636724472046,1.8143577575683594
1772883683152358400,4.5333583984375,10.012167930603027,3.504288673400879,1.4057832956314087
1772883683168956000,4.549955810546875,10.06002426147461,3.397209882736206,1.093519926071167
1772883683185545700,4.566545654296875,9.729815483093262,3.342175006866455,0.9421738982200623
1772883683202154000,4.583154052734375,9.523433685302734,3.55214524269104,0.7674978375434875
1772883683218759200,4.59975927734375,9.268000602722168,3.6598222255706787,0.7363911867141724
1772883683235364600,4.616364501953125,9.056833267211914,3.5928232669830322,0.46480581164360046
1772883683251970000,4.632969970703125,8.986844062805176,3.477369546890259,0.43549370765686035
1772883683268574500,4.649574462890625,8.806783676147461,3.2997024059295654,0.8943174481391907
1772883683285179600,4.6661796875,9.174081802368164,3.2237303256988525,1.2598211765289307
1772883683301781200,4.68278125,10.082158088684082,2.8588249683380127,1.4913266897201538
1772883683318407700,4.69940771484375,10.86161994934082,2.33180570602417,1.3728820085525513
1772883683335005000,4.7160048828125,10.958529472351074,1.8909281492233276,0.981655478477478
1772883683351618000,4.7326181640625,10.37946605682373,1.7353945970535278,0.5054838061332703
1772883683368219000,4.749218994140625,9.78544807434082,1.8993029594421387,0.1944168359041214
1772883683384820200,4.7658203125,9.474979400634766,2.107478618621826,0.10229317098855972
1772883683401434400,4.782434326171875,9.259625434875488,2.4047868251800537,0.2632105052471161
1772883683418034700,4.79903466796875,8.971290588378906,2.651845693588257,0.7310073375701904
1772883683434646000,4.81564599609375,8.812766075134277,2.7906293869018555,1.0869396924972534
1772883683451224800,4.832224853515625,8.761320114135742,2.788236618041992,1.287936806678772
1772883683467849500,4.848849365234375,8.790034294128418,2.826521635055542,1.3357932567596436
1772883683484455000,4.865454833984375,8.637491226196289,2.7589244842529297,1.231107234954834
1772883683501060000,4.88206005859375,8.37129020690918,2.5950162410736084,1.0205388069152832
1772883683517672200,4.898672119140625,8.256434440612793,2.5184457302093506,0.844068169593811
1772883683534259500,4.915259521484375,8.93958568572998,2.475973129272461,0.5575276613235474
1772883683550863400,4.93186328125,9.40917682647705,2.297708034515381,0.15194423496723175
1772883683567480300,4.948480224609375,9.220742225646973,2.2606191635131836,-0.27756741642951965
1772883683584086000,4.9650859375,8.732605934143066,2.4670002460479736,-0.40259242057800293
1772883683600662300,4.981662353515625,8.441878318786621,2.71645188331604,-0.2745763957500458
1772883683617294300,4.99829443359375,8.545966148376465,2.830709218978882,-0.07836493849754333
1772883683633906200,5.01490625,8.752346992492676,2.8414769172668457,0.03529413416981697
1772883683650504000,5.03150390625,8.85344409942627,2.8654050827026367,0.21655045449733734
1772883683667094000,5.048093994140625,9.035896301269531,2.899502754211426,0.35473597049713135
1772883683683703000,5.064703125,9.243474006652832,2.861815929412842,0.5778666734695435
1772883683700297200,5.081297119140625,9.080761909484863,2.9114668369293213,0.6891329288482666
1772883683716913700,5.09791357421875,8.791828155517578,2.9718856811523438,0.5814558863639832
1772883683733518000,5.11451806640625,8.432307243347168,2.9449665546417236,0.4492524564266205
1772883683750123500,5.13112353515625,8.316853523254395,2.9587252140045166,0.35892340540885925
1772883683766728700,5.147728759765625,8.568697929382324,3.0382864475250244,0.3248256742954254
1772883683783334000,5.164333984375,8.901300430297852,3.129213809967041,0.21355941891670227
1772883683799939600,5.180939697265625,9.114261627197266,3.2231321334838867,0.08853443711996078
1772883683816557600,5.1975576171875,9.144171714782715,3.325425386428833,-0.0975075215101242
1772883683833159000,5.214158935546875,9.233304023742676,3.4031920433044434,-0.1453639715909958
1772883683849772300,5.230772216796875,9.471389770507812,3.486940860748291,-0.10767702013254166
1772883683866372600,5.24737255859375,9.92961597442627,3.366103172302246,0.07058826833963394
1772883683883000800,5.264000732421875,10.594222068786621,3.3924243450164795,0.0526420995593071
1772883683899568600,5.280568603515625,10.944770812988281,3.5126636028289795,-0.10648060590028763
1772883683916188700,5.297188720703125,11.097911834716797,3.5330026149749756,-0.049651071429252625
1772883683932775700,5.313775634765625,11.3240327835083,3.731606960296631,-0.02512463741004467
1772883683949400300,5.330400390625,11.69731330871582,3.758526086807251,0.09212367236614227
1772883683966004000,5.34700390625,12.156137466430664,3.3690943717956543,0.30209386348724365
1772883683982609200,5.363609130859375,12.576675415039062,2.8905298709869385,0.27696922421455383
1772883683999237000,5.380237060546875,12.66042423248291,2.287538528442383,0.3774677813053131
1772883684015819500,5.396819580078125,12.440882682800293,1.7306089401245117,0.3122633695602417
1772883684032425000,5.413425048828125,12.250055313110352,1.333998680114746,0.004187439568340778
1772883684049029000,5.430029052734375,11.806785583496094,1.1359925270080566,-0.3200400173664093
1772883684065653500,5.446653564453125,10.643275260925293,1.100698471069336,-0.47617170214653015
1772883684082239500,5.463239501953125,9.241081237792969,1.3160524368286133,-0.638883650302887
1772883684098829000,5.4798291015625,8.317451477050781,1.5738791227340698,-0.5982056856155396
1772883684115450400,5.496450439453125,8.000402450561523,1.947757601737976,-0.48394837975502014
1772883684132055600,5.5130556640625,8.133204460144043,2.0715861320495605,-0.2727817893028259
1772883684148659700,5.52965966796875,8.353343963623047,2.1020946502685547,-0.19740787148475647
1772883684165248500,5.54624853515625,8.306683540344238,2.091326951980591,-0.0729810893535614
1772883684181857000,5.56285693359375,8.11824893951416,2.2271196842193604,0.019740786403417587
1772883684198451000,5.579450927734375,7.9591264724731445,2.3300111293792725,0.14117653667926788
1772883684215067100,5.596067138671875,8.048856735229492,2.4161527156829834,0.2225325107574463
1772883684231672300,5.61267236328125,8.34736156463623,2.328216314315796,0.2584248483181
1772883684248277500,5.629277587890625,8.659027099609375,2.2791635990142822,0.1944168359041214
1772883684264882200,5.645882080078125,8.912068367004395,2.2498514652252197,0.029910283163189888
1772883684281487600,5.662487548828125,8.844470977783203,2.2408783435821533,-0.08434699475765228
1772883684298102800,5.679102783203125,8.58903694152832,2.2911276817321777,-0.16390834748744965
1772883684314681900,5.695681884765625,8.36411190032959,2.3222343921661377,-0.14835500717163086
1772883684331302700,5.712302734375,8.445467948913574,2.3647069931030273,0.009571290574967861
1772883684347908400,5.728908447265625,8.96829891204834,2.368894338607788,0.2267199456691742
1772883684364513300,5.74551318359375,9.401400566101074,2.276770830154419,0.34277185797691345
1772883684381118500,5.762118408203125,9.561120986938477,2.1780667304992676,0.3415754437446594
1772883684397711600,5.778711669921875,9.45583724975586,2.2097716331481934,0.3900300860404968
1772883684414328800,5.795328857421875,9.204590797424316,2.3784656524658203,0.5072783827781677
1772883684430943700,5.81194384765625,8.934800148010254,2.7762725353240967,0.6699903607368469
1772883684447556900,5.828556884765625,8.627920150756836,3.111865758895874,0.8081758618354797
1772883684464142800,5.845142822265625,8.410771369934082,3.4677982330322266,0.8404789566993713
1772883684480763000,5.861762939453125,8.539983749389648,3.778865098953247,0.9852447509765625
1772883684497356000,5.87835595703125,8.595617294311523,3.9218363761901855,1.1491531133651733
1772883684513973800,5.894973876953125,8.533403396606445,3.9589250087738037,1.211964726448059
1772883684530579200,5.9115791015625,8.616554260253906,3.9008991718292236,1.3782658576965332
1772883684547182000,5.92818212890625,8.925228118896484,3.826721668243408,1.5002998113632202
1772883684563774000,5.94477392578125,9.556933403015137,3.8195431232452393,1.4919248819351196
1772883684580393500,5.9613935546875,10.084550857543945,3.7112679481506348,1.3878371715545654
1772883684596996900,5.977996826171875,10.27896785736084,3.706482172012329,1.0564311742782593
1772883684613604400,5.994604248046875,9.942776679992676,3.675973892211914,0.8093722462654114
1772883684630205000,6.011204833984375,9.541379928588867,3.4408788681030273,0.9248259663581848
1772883684646801700,6.0278017578125,9.856036186218262,3.229114055633545,0.9212366938591003
1772883684663405300,6.0444052734375,10.807183265686035,2.8037898540496826,0.989432156085968
1772883684680010500,6.061010498046875,11.312068939208984,2.215155601501465,1.077966570854187
1772883684696596500,6.077596435546875,11.176276206970215,1.7599210739135742,0.9559326171875
1772883684713221000,6.09422119140625,10.921441078186035,1.472184181213379,0.649053156375885
1772883684729826000,6.110825927734375,10.360921859741211,1.397408366203308,0.3074777126312256
1772883684746431200,6.12743115234375,9.552745819091797,1.5996019840240479,0.24167509377002716
1772883684763036400,6.144036376953125,9.087940216064453,1.9184455871582031,0.4091726839542389
1772883684779641600,6.1606416015625,9.299705505371094,2.173879384994507,0.5341976284980774
1772883684796233500,6.1772333984375,9.585049629211426,2.3330020904541016,0.7680960893630981
1772883684812865300,6.193865234375,9.445667266845703,2.4909284114837646,1.1288141012191772
1772883684829471200,6.21047119140625,9.215956687927246,2.59621262550354,1.4225330352783203
1772883684846080000,6.227080078125,9.1716890335083,2.648256540298462,1.4470595121383667
1772883684862676200,6.24367626953125,9.321240425109863,2.596810817718506,1.4745769500732422
1772883684879281700,6.26028173828125,9.601201057434082,2.513062000274658,1.5487544536590576
1772883684895879700,6.276879638671875,9.784850120544434,2.423929452896118,1.5517455339431763
1772883684912496400,6.293496337890625,9.54496955871582,2.3515465259552,1.2993026971817017
1772883684929102800,6.310102783203125,8.989834785461426,2.4921247959136963,0.9302098155021667
1772883684945704400,6.326704345703125,8.432307243347168,2.7290141582489014,0.519242525100708
1772883684962306800,6.343306884765625,7.905287742614746,2.898306369781494,0.1788634955883026
1772883684978916900,6.359916748046875,7.627122402191162,3.0753753185272217,-0.17647066712379456
1772883684995523800,6.37652392578125,7.6767730712890625,3.1866414546966553,-0.2907279431819916
1772883685012127000,6.393126953125,7.863413333892822,3.226123094558716,-0.13878370821475983
1772883685028729600,6.4097294921875,8.026124954223633,3.3403804302215576,0.14356936514377594
1772883685045339600,6.426339599609375,8.139784812927246,3.511467218399048,0.4504488706588745
1772883685061946000,6.442946044921875,8.176873207092285,3.597010612487793,0.5078766345977783
1772883685078547500,6.45954736328125,8.089534759521484,3.6161532402038574,0.4127618968486786
1772883685095152400,6.47615234375,8.340781211853027,3.686741590499878,0.2877369225025177
1772883685111758300,6.49275830078125,8.565707206726074,3.652045488357544,0.14775680005550385
1772883685128362200,6.5093623046875,8.515457153320312,3.7010984420776367,-0.02392822690308094
1772883685144951300,6.525951416015625,8.267800331115723,3.885345697402954,-0.05024927482008934
1772883685178151200,6.559151123046875,8.498109817504883,4.066003799438477,-0.2027917206287384
1772883685194753000,6.5757529296875,8.695517539978027,3.9493536949157715,-0.33918261528015137
1772883685211374600,6.59237451171875,8.715856552124023,3.920041799545288,-0.25304099917411804
1772883685227978200,6.608978271484375,8.724231719970703,3.817748546600342,-0.024526432156562805
1772883685244582400,6.62558251953125,9.199206352233887,3.7609190940856934,0.0011964113218709826
1772883685261190000,6.64218994140625,9.937392234802246,3.875774383544922,-0.2027917206287384
1772883685277791700,6.658791748046875,10.508678436279297,3.7956149578094482,-0.14476576447486877
1772883685294407200,6.6754072265625,10.670792579650879,3.835096597671509,-0.08793623000383377
1772883685311019300,6.692019287109375,10.512866020202637,4.082155227661133,-0.137587308883667
1772883685327617000,6.708616943359375,10.471590042114258,4.197608947753906,-0.2225325107574463
1772883685344236500,6.725236572265625,10.694721221923828,4.121636867523193,-0.014356935396790504
1772883685360818200,6.741818115234375,11.280961990356445,3.655036687850952,0.5006981492042542
1772883685377442000,6.758442138671875,12.043076515197754,2.9617161750793457,0.8739784955978394
1772883685394061300,6.775061279296875,12.562318801879883,2.335394859313965,0.8709874153137207
1772883685410633200,6.79163330078125,12.305688858032227,1.8340985774993896,0.4097708761692047
1772883685427251200,6.808251220703125,11.262417793273926,1.6169499158859253,-0.20338992774486542
1772883685443864600,6.824864501953125,9.92961597442627,1.6480566263198853,-0.5156532526016235
1772883685460448800,6.84144873046875,8.876175880432129,1.94297194480896,-0.5030909776687622
1772883685477050000,6.858050048828125,8.386244773864746,2.301297187805176,-0.4737788736820221
1772883685493677300,6.87467724609375,8.441280364990234,2.4771697521209717,-0.30508488416671753
1772883685510281200,6.89128125,8.593822479248047,2.568695068359375,-0.14775680005550385
1772883685526865400,6.907865478515625,8.434102058410645,2.7182464599609375,0.07417750358581543
1772883685543494700,6.92449462890625,8.292924880981445,2.8977081775665283,0.19621145725250244
1772883685560082400,6.94108251953125,8.336593627929688,2.9389843940734863,0.4253242313861847
1772883685576713500,6.95771337890625,8.799605369567871,2.8139593601226807,0.5659025311470032
1772883685593290200,6.974290283203125,9.618548393249512,2.568096876144409,0.7172485589981079
1772883685609911600,6.99091162109375,10.365707397460938,2.3030917644500732,0.7585247755050659
1772883685626486500,7.007486572265625,10.907083511352539,1.9555343389511108,0.6191428303718567
1772883685643111400,7.024111328125,10.724631309509277,1.664208173751831,0.3595215976238251
1772883685659713800,7.0407138671875,10.085747718811035,1.7156537771224976,0.20099709928035736
1772883685676319500,7.057319580078125,9.497113227844238,1.9776679277420044,0.20159530639648438
1772883685692910300,7.073910400390625,9.20698356628418,2.1882362365722656,0.3768695592880249
1772883685709524500,7.0905244140625,9.220144271850586,2.3539392948150635,0.607776939868927
1772883685726137000,7.10713720703125,8.97966480255127,2.521436929702759,0.9020941257476807
1772883685742739700,7.12373974609375,8.401798248291016,2.7433712482452393,1.0504491329193115
1772883685759343900,7.14034375,7.8765740394592285,2.9485557079315186,1.0169496536254883
1772883685775949600,7.156949462890625,7.671987533569336,3.0861430168151855,0.8799605369567871
1772883685792588500,7.173588623046875,7.582854747772217,3.1585259437561035,0.6753742098808289
1772883685809177000,7.190177001953125,7.5804619789123535,3.2512478828430176,0.5180460810661316
1772883685825767200,7.20676708984375,7.398009300231934,3.5120654106140137,0.5066801905632019
1772883685842387000,7.223386962890625,7.486543655395508,3.8775691986083984,0.4468596279621124
1772883685858974700,7.239974609375,7.7222371101379395,4.089931964874268,0.5186443328857422
1772883685875586000,7.2565859375,7.864011764526367,4.191627025604248,0.5377869009971619
1772883685892206800,7.273206787109375,7.971688747406006,4.34536600112915,0.6340979933738708
1772883685908804000,7.28980419921875,8.173882484436035,4.322634220123291,0.7429714202880859
1772883685925400800,7.30640087890625,8.641678810119629,4.177868366241455,0.8919246196746826
1772883685942022100,7.323022216796875,9.190832138061523,4.053441524505615,1.036690354347229
1772883685958609200,7.339609130859375,9.845269203186035,4.0803608894348145,0.9804590940475464
1772883685975225000,7.35622509765625,10.573883056640625,3.9696927070617676,0.8512466549873352
1772883685991829200,7.372829345703125,11.016555786132812,3.9870407581329346,0.494716078042984
1772883686008418000,7.38941796875,10.8699951171875,4.063611030578613,0.26201409101486206
1772883686025035300,7.40603515625,10.269396781921387,4.261617183685303,0.4773681163787842
1772883686041649700,7.422649658203125,9.942177772521973,4.409373760223389,0.6759724020957947
1772883686058249500,7.43924951171875,10.125228881835938,4.202992916107178,0.9750752449035645
1772883686074855400,7.45585546875,10.631909370422363,3.570091485977173,1.2592228651046753
1772883686091452000,7.472451904296875,10.746166229248047,2.885744094848633,1.358525037765503
1772883686108073700,7.48907373046875,10.773085594177246,2.3718855381011963,1.043868899345398
1772883686124652800,7.50565283203125,10.51107120513916,1.9507486820220947,0.7363911867141724
1772883686141262300,7.522262451171875,10.009177207946777,1.8041882514953613,0.42711883783340454
1772883686157867000,7.538866943359375,9.757332801818848,1.8705891370773315,0.15134602785110474
1772883686174472400,7.555472412109375,9.481559753417969,1.9980069398880005,0.03469592705368996
1772883686191077000,7.5720771484375,8.865407943725586,2.276172637939453,0.26500511169433594
1772883686207682600,7.5886826171875,8.307880401611328,2.802593469619751,0.7310073375701904
1772883686224284400,7.605284423828125,8.240880966186523,3.191427230834961,1.0785647630691528
1772883686240896000,7.62189599609375,8.2157564163208,3.3278181552886963,1.3094722032546997
1772883686257497600,7.63849755859375,8.291728973388672,3.390031576156616,1.409970760345459
1772883686274103000,7.65510302734375,8.886942863464355,3.290729284286499,1.4632110595703125
1772883686290721000,7.671720947265625,9.598808288574219,3.0933215618133545,1.3956137895584106
1772883686307331300,7.688331298828125,10.15573787689209,2.9001009464263916,1.1563315391540527
1772883686323932200,7.70493212890625,9.970891952514648,2.6392834186553955,0.672383189201355
1772883686340537000,7.721537109375,9.279964447021484,2.592623233795166,0.18843477964401245
1772883686357128000,7.7381279296875,8.530412673950195,2.9072794914245605,-0.10169496387243271
1772883686373747700,7.754747802734375,7.948358535766602,3.2470602989196777,-0.2584248483181
1772883686390372600,7.77137255859375,7.813164234161377,3.4821550846099854,-0.5575276613235474
1772883686406962200,7.787962158203125,8.166105270385742,3.422334671020508,-0.914058268070221
1772883686423559700,7.8045595703125,8.420342445373535,3.4235310554504395,-0.7573283910751343
1772883686440171300,7.821171142578125,8.312067985534668,3.7256247997283936,-0.39122650027275085
1772883686456772400,7.8377724609375,8.094321250915527,3.964907169342041,-0.048454657196998596
1772883686473378000,7.8543779296875,7.905886173248291,4.113860130310059,0.1501496136188507
1772883686489963300,7.87096337890625,7.899305820465088,4.228715896606445,0.19381862878799438
1772883686506593300,7.88759326171875,8.13798999786377,4.250251293182373,0.19262222945690155
1772883686523192800,7.90419287109375,8.075776100158691,4.226921081542969,0.058624155819416046
1772883686539799300,7.92079931640625,7.945965766906738,4.174877166748047,-0.18005990982055664
1772883686556387000,7.937386962890625,8.0350980758667,4.168296813964844,-0.4486542344093323
1772883686573009200,7.954009033203125,8.428717613220215,4.110270977020264,-0.4175475537776947
1772883686589592800,7.9705927734375,8.931808471679688,4.044468402862549,-0.5258227586746216
1772883686606206700,7.987206787109375,9.177671432495117,3.937389612197876,-0.5473581552505493
1772883686622811000,8.003810791015624,9.192625999450684,4.012165546417236,-0.29371899366378784
1772883686639416000,8.020416015625,9.390034675598145,4.110270977020264,0.21774685382843018
1772883686656016600,8.0370166015625,9.975079536437988,4.119842529296875,0.3966103494167328
1772883686672622800,8.053622802734376,10.369894981384277,4.408775806427002,0.18125630915164948
1772883686689234400,8.070234375,10.445268630981445,4.527220249176025,0.35832518339157104
1772883686705836500,8.08683642578125,10.557133674621582,4.729413986206055,0.4217349886894226
1772883686722438000,8.10343798828125,10.343574523925781,4.889732837677002,0.4289134442806244
1772883686739049700,8.1200498046875,9.957133293151855,4.780859470367432,0.35832518339157104
1772883686755657500,8.136657470703126,9.713663101196289,4.72163724899292,0.2063809484243393
1772883686772256800,8.1532568359375,10.214361190795898,4.291527271270752,0.2147558331489563
1772883686788858600,8.169858642578125,10.902297973632812,3.61435866355896,0.27756741642951965
1772883686805478000,8.186477783203125,11.23789119720459,3.0209386348724365,0.15134602785110474
1772883686822086000,8.2030859375,11.525628089904785,2.4879374504089355,0.11724831163883209
1772883686838695000,8.21969482421875,11.414361953735352,2.276770830154419,0.049651071429252625
1772883686855287000,8.236287109375,10.351948738098145,2.407179594039917,-0.29730820655822754
1772883686871901200,8.252901123046875,9.022735595703125,2.4023938179016113,-0.8733802437782288
1772883686888506400,8.26950634765625,7.966304779052734,2.441875457763672,-1.3070793151855469
1772883686905111600,8.286111572265625,7.5804619789123535,2.5782663822174072,-1.4524433612823486
1772883686921714700,8.302714599609375,7.94716215133667,2.7427730560302734,-1.2137593030929565
1772883686938324500,8.319324462890625,8.508877754211426,2.788236618041992,-0.7579265832901001
1772883686954910500,8.335910400390626,8.649456024169922,3.0041887760162354,-0.6227321028709412
1772883686971532300,8.3525322265625,8.38564682006836,3.0999016761779785,-0.44386860728263855
1772883686988138000,8.369137939453125,7.929814338684082,3.0963125228881836,-0.6035895347595215
1772883687004737300,8.3857373046875,8.134998321533203,2.8791637420654297,-0.6640082597732544
1772883687021347600,8.40234765625,9.30867862701416,2.626721143722534,-0.42352959513664246
1772883687037956600,8.41895654296875,11.163714408874512,2.1672990322113037,0.2225325107574463
1772883687054573300,8.4355732421875,11.010573387145996,2.400599241256714,0.17228323221206665
1772883687071162600,8.45216259765625,9.224929809570312,2.781656265258789,0.3858426511287689
1772883687087769300,8.468769287109374,7.327421188354492,3.3571300506591797,-0.5318048596382141
1772883687104354800,8.485354736328125,6.970292568206787,3.2063822746276855,-0.7028916478157043
1772883687120964400,8.50196435546875,7.258627414703369,3.2452657222747803,-0.4175475537776947
1772883687137569300,8.5185693359375,7.45364236831665,3.3332018852233887,-0.3314059376716614
