time,seconds_elapsed,z,y,x
1772883678756127700,0.137127685546875,0.38835757970809937,-0.14019356667995453,0.48426342010498047
1772883678772735500,0.153735595703125,0.3660610020160675,-0.11041389405727386,0.5079344511032104
1772883678789345300,0.17034521484375,0.3306308090686798,-0.030543262138962746,0.5145012736320496
1772883678805949000,0.186948974609375,0.28435778617858887,0.001679879380390048,0.46929723024368286
1772883678822550500,0.203550537109375,0.22143864631652832,-0.051312681287527084,0.40882155299186707
1772883678839144400,0.22014453125,0.12950342893600464,-0.11621711403131485,0.37919458746910095
1772883678855763500,0.236763427734375,0.03420845419168472,-0.17318029701709747,0.42928555607795715
1772883678872379600,0.253379638671875,-0.0633772686123848,-0.22617286443710327,0.4957171380519867
1772883678888986400,0.269986328125,-0.10613783448934555,-0.22831088304519653,0.5384777188301086
1772883678905593900,0.28659375,-0.13469578325748444,-0.20601430535316467,0.5458080768585205
1772883678922191000,0.303191162109375,-0.13316862285137177,-0.2532036304473877,0.493731826543808
1772883678938807300,0.319807373046875,-0.09972374886274338,-0.2863430976867676,0.44257187843322754
1772883678955405800,0.33640576171875,-0.11102475970983505,-0.3689626157283783,0.3672827184200287
1772883678972006000,0.353005859375,-0.2203696370124817,-0.37888917326927185,0.2790127098560333
1772883678988622000,0.3696220703125,-0.4005748927593231,-0.33200526237487793,0.20906862616539001
1772883679005222000,0.386221923828125,-0.5719226002693176,-0.21868975460529327,0.1270599663257599
1772883679021822200,0.402822265625,-0.641255795955658,-0.0757472887635231,-0.00809396430850029
1772883679038436600,0.4194365234375,-0.6006332635879517,0.12599095702171326,-0.12553280591964722
1772883679055038000,0.436037841796875,-0.48059824109077454,0.37491855025291443,-0.1963931769132614
1772883679071638800,0.452638671875,-0.2964223623275757,0.6559165716171265,-0.18219055235385895
1772883679088246000,0.46924609375,-0.10873401165008545,0.8924741148948669,-0.06902777403593063
1772883679104857900,0.48585791015625,0.032681290060281754,0.9495900273323059,0.09056077152490616
1772883679121455900,0.502455810546875,0.1394299864768982,0.7858781218528748,0.251676470041275
1772883679138064100,0.519064208984375,0.20128010213375092,0.5036584138870239,0.40973785519599915
1772883679154667000,0.5356669921875,0.2076941877603531,0.17348572611808777,0.5494732856750488
1772883679171268000,0.55226806640625,0.13958270847797394,-0.0981965884566307,0.6525567770004272
1772883679187898600,0.568898681640625,0.04153883829712868,-0.3159700334072113,0.6388123035430908
1772883679204483600,0.585483642578125,-0.05314527451992035,-0.49296826124191284,0.4703662395477295
1772883679221089300,0.60208935546875,-0.14676037430763245,-0.46899178624153137,0.24984388053417206
1772883679237694700,0.61869482421875,-0.2177734673023224,-0.32268956303596497,0.036041051149368286
1772883679254290700,0.635290771484375,-0.2519819140434265,-0.128434419631958,-0.1108720451593399
1772883679270894000,0.65189404296875,-0.28206703066825867,0.13011430203914642,-0.17638733983039856
1772883679287495200,0.6684951171875,-0.30375275015830994,0.33918291330337524,-0.19043724238872528
1772883679304105200,0.685105224609375,-0.28649580478668213,0.42638394236564636,-0.19792033731937408
1772883679320704800,0.701704833984375,-0.23289237916469574,0.3323107063770294,-0.21533000469207764
1772883679337312300,0.718312255859375,-0.18356500566005707,0.11423180252313614,-0.21074850857257843
1772883679353917000,0.7349169921875,-0.14446963369846344,-0.09010262042284012,-0.20525072515010834
1772883679370529000,0.751529052734375,-0.10216721147298813,-0.20570887625217438,-0.2454151064157486
1772883679387136500,0.768136474609375,-0.06704246252775192,-0.2591595947742462,-0.31444287300109863
1772883679403740700,0.78474072265625,-0.05207626149058342,-0.24419337511062622,-0.3445279896259308
1772883679420348200,0.80134814453125,-0.03176499158143997,-0.20983220636844635,-0.32818734645843506
1772883679436957000,0.81795703125,0.007788531947880983,-0.15943582355976105,-0.2900082767009735
1772883679453558500,0.83455859375,0.039248090237379074,-0.1589776873588562,-0.26572638750076294
1772883679470174000,0.851174072265625,0.05742133408784866,-0.15164729952812195,-0.23365595936775208
1772883679486770700,0.867770751953125,0.06918048858642578,-0.17577648162841797,-0.20204368233680725
1772883679503374600,0.88437451171875,0.09865473955869675,-0.15027284622192383,-0.1791362315416336
1772883679519979000,0.90097900390625,0.12629638612270355,-0.10705413669347763,-0.1814269721508026
1772883679536590600,0.917590576171875,0.14569136500358582,-0.04642575979232788,-0.20311269164085388
1772883679553190100,0.934190185546875,0.15913039445877075,-0.03084869496524334,-0.23121249675750732
1772883679569791700,0.950791748046875,0.17043140530586243,-0.08261952549219131,-0.2041817009449005
1772883679586410200,0.96741015625,0.20311269164085388,-0.13118331134319305,-0.11927144229412079
1772883679603009800,0.984009765625,0.23854288458824158,-0.1837177276611328,-0.015118914656341076
1772883679619608300,1.0006083984375,0.24205535650253296,-0.26251932978630066,0.048716504126787186
1772883679636217300,1.01721728515625,0.2428189367055893,-0.28985556960105896,0.04459316283464432
1772883679652821200,1.0338212890625,0.28787025809288025,-0.18035796284675598,0.08078692853450775
1772883679669428500,1.050428466796875,0.3549126982688904,-0.05161811411380768,0.17409659922122955
1772883679686035200,1.06703515625,0.4554000496864319,-0.058184914290905,0.2802344262599945
1772883679702634200,1.08363427734375,0.5586362481117249,-0.11988230794668198,0.33567044138908386
1772883679719242000,1.100241943359375,0.598953366279602,-0.24953845143318176,0.27641651034355164
1772883679735851300,1.116851318359375,0.5059491395950317,-0.355981707572937,0.13347405195236206
1772883679752435000,1.13343505859375,0.3228422701358795,-0.3908010423183441,-0.0032070425804704428
1772883679769048000,1.150048095703125,0.1313360333442688,-0.36132678389549255,-0.098502017557621
1772883679785643000,1.16664306640625,0.036041051149368286,-0.20341812074184418,-0.10155634582042694
1772883679802258000,1.1832578125,0.031612277030944824,0.1609629988670349,0.017562376335263252
1772883679818860000,1.199860107421875,0.11514809727668762,0.660192608833313,0.24373523890972137
1772883679835460400,1.21646044921875,0.27290403842926025,1.100015640258789,0.4285219609737396
1772883679852094200,1.23309423828125,0.47448956966400146,1.2986994981765747,0.4830417037010193
1772883679868689400,1.249689453125,0.6349944472312927,1.2608258724212646,0.4155410826206207
1772883679885292300,1.266292236328125,0.697760820388794,0.9699012637138367,0.3110831379890442
1772883679901897500,1.2828974609375,0.7118107080459595,0.6656904220581055,0.2616030275821686
1772883679918504000,1.29950390625,0.7458664774894714,0.41813725233078003,0.244804248213768
1772883679935117600,1.31611767578125,0.7922922372817993,0.2513710558414459,0.20631973445415497
1772883679951709000,1.332708984375,0.7661777138710022,0.07925976812839508,0.08827003091573715
1772883679968321500,1.349321533203125,0.6508769392967224,-0.018020525574684143,-0.09178250283002853
1772883679984925400,1.365925537109375,0.48976120352745056,0.01863138936460018,-0.26022860407829285
1772883680001530600,1.382530517578125,0.3825543522834778,0.2428189367055893,-0.3243694305419922
1772883680018119000,1.399118896484375,0.3732386529445648,0.5684100985527039,-0.2808452844619751
1772883680034739000,1.415739013671875,0.44180828332901,0.8193230032920837,-0.230448916554451
1772883680051326700,1.43232666015625,0.5445863604545593,0.9332493543624878,-0.2444988191127777
1772883680067940900,1.44894091796875,0.6163630485534668,0.8657487630844116,-0.2938261926174164
1772883680084549600,1.465549560546875,0.6414085030555725,0.6568328738212585,-0.2880229651927948
1772883680101162800,1.482162841796875,0.632398247718811,0.32986724376678467,-0.2047925740480423
1772883680117763000,1.49876318359375,0.5917757153511047,0.020005837082862854,-0.09407325088977814
1772883680134374400,1.51537451171875,0.4915938079357147,-0.2292271852493286,0.010995574295520782
1772883680150975700,1.531975830078125,0.35094207525253296,-0.294437050819397,0.1514945775270462
1772883680167582000,1.54858203125,0.2612976133823395,-0.2041817009449005,0.26969701051712036
1772883680184186000,1.56518603515625,0.21838432550430298,-0.10048733651638031,0.2866485118865967
1772883680200792600,1.58179248046875,0.1745547503232956,-0.029168816283345222,0.19624045491218567
1772883680217389800,1.598389892578125,0.1313360333442688,0.0019853119738399982,0.07284568250179291
1772883680234005000,1.6150048828125,0.06658431142568588,0.029626963660120964,0.0024434609804302454
1772883680250580500,1.63158056640625,-0.02229658141732216,0.024434609338641167,-0.021838432177901268
1772883680267199200,1.64819921875,-0.11591167747974396,-0.010231993161141872,-0.06017022579908371
1772883680283803000,1.664802978515625,-0.19685132801532745,-0.04612032696604729,-0.1336267739534378
1772883680300407600,1.681407470703125,-0.27458393573760986,-0.014202617108821869,-0.2076941877603531
1772883680317013500,1.698013427734375,-0.38148534297943115,-0.06994406878948212,-0.2889392673969269
1772883680333620500,1.714620361328125,-0.5432119369506836,-0.22678372263908386,-0.4080579876899719
1772883680350240800,1.73124072265625,-0.7539604306221008,-0.39095374941825867,-0.5348125100135803
1772883680366842400,1.74784228515625,-0.9393580555915833,-0.40026944875717163,-0.6091853380203247
1772883680383446500,1.764446533203125,-1.078940749168396,-0.21884247660636902,-0.6649268269538879
1772883680400051700,1.7810517578125,-1.181107997894287,0.09605856239795685,-0.7269296646118164
1772883680416658400,1.797658447265625,-1.1924089193344116,0.5908594131469727,-0.7841982841491699
1772883680433247200,1.814247314453125,-1.1398745775222778,1.118036150932312,-0.8868235945701599
1772883680449865700,1.83086572265625,-1.1032226085662842,1.3070988655090332,-1.0888673067092896
1772883680466477800,1.847477783203125,-1.1459832191467285,1.21974515914917,-1.2687671184539795
1772883680483082000,1.86408203125,-1.1494957208633423,1.088409185409546,-1.3350459337234497
1772883680499683600,1.88068359375,-1.014647126197815,1.0030407905578613,-1.2797627449035645
1772883680516288800,1.897288818359375,-0.7785477638244629,0.8536841869354248,-1.1064296960830688
1772883680532893700,1.913893798828125,-0.49846604466438293,0.6464481353759766,-0.7944302558898926
1772883680549498600,1.93049853515625,-0.26022860407829285,0.40362921357154846,-0.3462078869342804
1772883680566118100,1.9471181640625,-0.04886921867728233,0.1996002197265625,0.14996741712093353
1772883680582707500,1.96370751953125,0.18127426505088806,-0.016798794269561768,0.5468770861625671
1772883680599315200,1.980315185546875,0.38209620118141174,-0.3055853247642517,0.7860308289527893
1772883680615954700,1.99695458984375,0.46181413531303406,-0.6769914031028748,0.9185886383056641
1772883680632523500,2.0135234375,0.38240164518356323,-1.1220067739486694,1.0157161951065063
1772883680649117700,2.03011767578125,0.20173825323581696,-1.5335772037506104,1.1157454252243042
1772883680665735400,2.0467353515625,0.01924225501716137,-1.7721201181411743,1.1870639324188232
1772883680682338000,2.063338134765625,-0.1814269721508026,-1.9349156618118286,1.0329731702804565
1772883680698945800,2.07994580078125,-0.342695415019989,-2.0196731090545654,0.6724098920822144
1772883680715548200,2.096548095703125,-0.43799036741256714,-2.0137171745300293,0.35873061418533325
1772883680732138200,2.11313818359375,-0.4967861473560333,-1.7679967880249023,0.22220222651958466
1772883680748748500,2.12974853515625,-0.5041165351867676,-1.2852604389190674,0.2025018334388733
1772883680765351000,2.146350830078125,-0.4366159439086914,-0.6165157556533813,0.1719585657119751
1772883680781955600,2.16295556640625,-0.3269656300544739,0.040164388716220856,0.039706241339445114
1772883680798564000,2.179564208984375,-0.26251932978630066,0.3761402666568756,-0.11728613078594208
1772883680815168000,2.19616796875,-0.24404066801071167,0.4917465150356293,-0.22296582162380219
1772883680831773200,2.212773193359375,-0.23075434565544128,0.460897833108902,-0.3058907687664032
1772883680848394500,2.22939453125,-0.2321287989616394,0.2958115041255951,-0.36193767189979553
1772883680865002500,2.24600244140625,-0.2551889419555664,0.09804387390613556,-0.3865249752998352
1772883680881593900,2.26259375,-0.28420504927635193,-0.03894266113638878,-0.4268420934677124
1772883680898207000,2.27920703125,-0.28435778617858887,-0.0659734457731247,-0.4813618063926697
1772883680914812700,2.295812744140625,-0.25564709305763245,0.05054909735918045,-0.484416127204895
1772883680931416000,2.312416015625,-0.2054034322500229,0.2177734673023224,-0.4124867618083954
1772883680948022300,2.329022216796875,-0.152105450630188,0.3680463135242462,-0.33169981837272644
1772883680964626400,2.34562646484375,-0.08750644326210022,0.4285219609737396,-0.3251330256462097
1772883680981232600,2.362232666015625,0.016951510682702065,0.43829581141471863,-0.3862195611000061
1772883680997837300,2.37883740234375,0.15057829022407532,0.2981022298336029,-0.4378376603126526
1772883681014441500,2.39544140625,0.2848159074783325,0.08781187981367111,-0.43967026472091675
1772883681031046000,2.4120458984375,0.37201693654060364,-0.15195272862911224,-0.3836233615875244
1772883681047654000,2.42865380859375,0.4219551682472229,-0.2935207486152649,-0.23289237916469574
1772883681064260900,2.4452607421875,0.5077817440032959,-0.20876319706439972,-0.0429132841527462
1772883681080857600,2.461857666015625,0.6166684627532959,-0.042760565876960754,0.07712173461914062
1772883681097468700,2.47846875,0.6911939978599548,0.0835358202457428,0.07941248267889023
1772883681114072000,2.495072021484375,0.7115052938461304,0.15851953625679016,-0.03649919852614403
1772883681130677500,2.511677490234375,0.708450973033905,0.10552696883678436,-0.11972958594560623
1772883681147284000,2.528283935546875,0.6687447428703308,-0.024129176512360573,-0.02519819140434265
1772883681163891000,2.544890869140625,0.5929974317550659,-0.13927727937698364,0.2356412708759308
1772883681180488400,2.561488525390625,0.5135849714279175,-0.11468994617462158,0.5349652171134949
1772883681197105000,2.57810498046875,0.4818199574947357,0.02229658141732216,0.7225008606910706
1772883681213699800,2.594699951171875,0.517861008644104,0.25106561183929443,0.8341364860534668
1772883681230294300,2.611294189453125,0.6004805564880371,0.5393940210342407,0.9337075352668762
1772883681246900700,2.627900634765625,0.6956228017807007,0.7799221873283386,0.9630290865898132
1772883681263507500,2.644507568359375,0.7709119319915771,0.8622363209724426,0.8874344825744629
1772883681280105000,2.66110498046875,0.7881689071655273,0.7177666425704956,0.709061861038208
1772883681296716000,2.677716064453125,0.7451028823852539,0.42898011207580566,0.5028948187828064
1772883681313321700,2.69432177734375,0.6623306274414062,0.1238529309630394,0.32910364866256714
1772883681329930500,2.710930419921875,0.5732970237731934,-0.09834930300712585,0.18860463798046112
1772883681346544400,2.72754443359375,0.4917465150356293,-0.21059578657150269,0.07177666574716568
1772883681363172000,2.744172119140625,0.4271475374698639,-0.1469130963087082,-0.006108652334660292
1772883681379755300,2.76075537109375,0.4179845452308655,0.036041051149368286,-0.0936150997877121
1772883681396362000,2.777362060546875,0.47601673007011414,0.25931230187416077,-0.22250767052173615
1772883681412965000,2.793965087890625,0.6058256030082703,0.48517972230911255,-0.32009339332580566
1772883681429570000,2.810570068359375,0.7197519540786743,0.6452264189720154,-0.313373863697052
1772883681446181400,2.827181396484375,0.8063421249389648,0.7142542004585266,-0.23167064785957336
1772883681462778600,2.843778564453125,0.8773552179336548,0.6879869699478149,-0.1333213448524475
1772883681479369500,2.860369384765625,0.9098837971687317,0.5439754724502563,-0.09560041129589081
1772883681495988700,2.87698876953125,0.8923214077949524,0.3068070709705353,-0.14523321390151978
1772883681512598300,2.893598388671875,0.8132143616676331,0.01924225501716137,-0.22479841113090515
1772883681529202200,2.9102021484375,0.6840163469314575,-0.19883663952350616,-0.28206703066825867
1772883681545812700,2.926812744140625,0.5803219676017761,-0.2223549485206604,-0.29825496673583984
1772883681562410200,2.94341015625,0.4992296099662781,-0.12049316614866257,-0.26511552929878235
1772883681579012900,2.960012939453125,0.4355469346046448,0.07406741380691528,-0.14569136500358582
1772883681595625500,2.97662548828125,0.38835757970809937,0.2509129047393799,0.003054326167330146
1772883681612225500,2.9932255859375,0.365755558013916,0.3527746796607971,0.1085812970995903
1772883681628830700,3.009830810546875,0.3396410644054413,0.323147714138031,0.08735372871160507
1772883681645436200,3.026436279296875,0.26022860407829285,0.18997909128665924,-0.022602014243602753
1772883681662042400,3.04304248046875,0.09865473955869675,-0.05650503560900688,-0.14569136500358582
1772883681678648300,3.0596484375,-0.13545936346054077,-0.2587014436721802,-0.19486601650714874
1772883681695250700,3.076250732421875,-0.3917173445224762,-0.38499781489372253,-0.14767667651176453
1772883681711840000,3.092840087890625,-0.5955936312675476,-0.44058656692504883,-0.06444628536701202
1772883681728450800,3.109450927734375,-0.7147123217582703,-0.37339138984680176,-0.007788531947880983
1772883681745055500,3.126055419921875,-0.7255551815032959,-0.20845776796340942,0.07437284290790558
1772883681761659000,3.142658935546875,-0.6443101167678833,-0.05390885844826698,0.15195272862911224
1772883681778264800,3.159264892578125,-0.5543602108955383,0.06261368840932846,0.15546520054340363
1772883681794867500,3.175867431640625,-0.5580254197120667,0.08338310569524765,0.05849034711718559
1772883681811480000,3.19247998046875,-0.6818783283233643,0.0013744467869400978,-0.10293079167604446
1772883681828097500,3.20909765625,-0.8567385077476501,-0.02275473065674305,-0.242513507604599
1772883681844699100,3.22569921875,-1.011745572090149,0.03955352306365967,-0.33276882767677307
1772883681861306000,3.24230615234375,-1.0659598112106323,0.22128593921661377,-0.3396410644054413
1772883681877909500,3.258909423828125,-0.9824240207672119,0.44486260414123535,-0.2562579810619354
1772883681894515200,3.27551513671875,-0.7660250067710876,0.6540839672088623,-0.07895433157682419
1772883681911120100,3.2921201171875,-0.484416127204895,0.7878634333610535,0.12278391420841217
1772883681927726000,3.30872607421875,-0.24190263450145721,0.8200865983963013,0.290313720703125
1772883681944330000,3.325330078125,-0.061391957104206085,0.6255260109901428,0.34208452701568604
1772883681960925200,3.34192529296875,0.07742717117071152,0.24633140861988068,0.3442225754261017
1772883681977524700,3.358524658203125,0.2021963894367218,-0.17379115521907806,0.3882048726081848
1772883681994131000,3.375130859375,0.3043636083602905,-0.5722280144691467,0.48456886410713196
1772883682010755300,3.39175537109375,0.32757648825645447,-0.9697485566139221,0.5511531829833984
1772883682027352300,3.408352294921875,0.2168571650981903,-1.3319916725158691,0.4720461070537567
1772883682043964400,3.42496435546875,-0.0065668015740811825,-1.5879441499710083,0.25564709305763245
1772883682060567600,3.441567626953125,-0.2545780837535858,-1.585500717163086,0.0731511116027832
1772883682077150000,3.45814990234375,-0.43539419770240784,-1.1884382963180542,0.0027488935738801956
1772883682093781200,3.47478125,-0.4795292317867279,-0.5448917746543884,-0.005345070734620094
1772883682110381600,3.491381591796875,-0.3933972120285034,0.09422596544027328,-0.030695978552103043
1772883682126988000,3.507988037109375,-0.24572055041790009,0.5355761051177979,-0.08200865983963013
1772883682143592000,3.524592041015625,-0.13775011897087097,0.6530149579048157,-0.11789698898792267
1772883682160197400,3.541197265625,-0.06352998316287994,0.5911648273468018,-0.11056660860776901
1772883682176802300,3.55780224609375,-0.02779436856508255,0.3568980097770691,-0.12018773704767227
1772883682193405000,3.574405029296875,-0.029168816283345222,0.07712173461914062,-0.10934487730264664
1772883682209998800,3.590998779296875,-0.05115996301174164,-0.15317445993423462,-0.12293662875890732
1772883682226604000,3.60760400390625,-0.07987063378095627,-0.3219259977340698,-0.18768835067749023
1772883682243209000,3.624208984375,-0.09804387390613556,-0.36590829491615295,-0.21502456068992615
1772883682259798300,3.64079833984375,-0.10674870014190674,-0.30512720346450806,-0.22098049521446228
1772883682276419300,3.65741943359375,-0.11484266817569733,-0.22357667982578278,-0.1817324161529541
1772883682293024300,3.674024169921875,-0.12767083942890167,-0.1212567538022995,-0.11423180252313614
1772883682309629700,3.690629638671875,-0.128434419631958,-0.01160643994808197,-0.0981965884566307
1772883682326252500,3.70725244140625,-0.11850785464048386,0.044745877385139465,-0.12690725922584534
1772883682342853000,3.72385302734375,-0.10613783448934555,0.042760565876960754,-0.17608191072940826
1772883682359459000,3.740458984375,-0.098502017557621,-0.01237002108246088,-0.20036379992961884
1772883682376063500,3.7570634765625,-0.10247264802455902,-0.08674286305904388,-0.16569720208644867
1772883682392670000,3.773669921875,-0.09911288321018219,-0.15913039445877075,-0.12293662875890732
1772883682409273900,3.79027392578125,-0.07101308554410934,-0.2632829248905182,-0.07635815441608429
1772883682425863200,3.80686328125,-0.010231993161141872,-0.3530801236629486,0.039706241339445114
1772883682442484000,3.82348388671875,0.0907134860754013,-0.3199406862258911,0.23716843128204346
1772883682459091000,3.840091064453125,0.2356412708759308,-0.1609629988670349,0.4775438904762268
1772883682475694800,3.85669482421875,0.33567044138908386,-0.09269879758358002,0.6085745096206665
1772883682492299800,3.8732998046875,0.3549126982688904,-0.23945917189121246,0.6507241725921631
1772883682508904700,3.88990478515625,0.3248275816440582,-0.44684791564941406,0.693637490272522
1772883682525512700,3.9065126953125,0.2819143235683441,-0.6994407176971436,0.6404922008514404
1772883682542113500,3.923113525390625,0.21700987219810486,-0.8252789378166199,0.5241223573684692
1772883682558720300,3.93972021484375,0.16371189057826996,-0.7305948138237,0.42241331934928894
1772883682575325700,3.95632568359375,0.13454307615756989,-0.5132794976234436,0.39675697684288025
1772883682591931400,3.972931396484375,0.14645494520664215,-0.20662516355514526,0.45891252160072327
1772883682608535600,3.98953564453125,0.21502456068992615,0.16722436249256134,0.5728389024734497
1772883682625140000,4.006139892578125,0.3156646192073822,0.5103778839111328,0.6852380633354187
1772883682641747000,4.022746826171875,0.41172316670417786,0.6627888083457947,0.6931793093681335
1772883682658352000,4.03935205078125,0.47769662737846375,0.6249151229858398,0.6101016402244568
1772883682674949400,4.055949462890625,0.5232060551643372,0.5085453391075134,0.5167919993400574
1772883682691535400,4.072535400390625,0.5502368807792664,0.3628539443016052,0.4024074673652649
1772883682708152600,4.089152587890625,0.5581781268119812,0.2269364446401596,0.24358251690864563
1772883682724759000,4.105759033203125,0.547182559967041,0.11163562536239624,0.06520986557006836
1772883682741363000,4.122363037109375,0.508087158203125,0.07513642311096191,-0.0913243517279625
1772883682757968100,4.138968017578125,0.471129834651947,0.11301007121801376,-0.20494529604911804
1772883682774573000,4.155572998046875,0.4691445231437683,0.24358251690864563,-0.2776382565498352
1772883682791179500,4.172179443359375,0.5126686692237854,0.36850446462631226,-0.36132678389549255
1772883682807783400,4.188783447265625,0.5786421298980713,0.4781547784805298,-0.4129449129104614
1772883682824405500,4.205405517578125,0.6539312601089478,0.5245805382728577,-0.42180246114730835
1772883682841007000,4.222007080078125,0.7319692969322205,0.4554000496864319,-0.427452951669693
1772883682857613300,4.23861328125,0.7699956297874451,0.289244681596756,-0.3985895812511444
1772883682874215700,4.255215576171875,0.7573201656341553,0.11728613078594208,-0.33887749910354614
1772883682890824700,4.27182470703125,0.71318519115448,-0.013286318629980087,-0.2993239760398865
1772883682907415800,4.288415771484375,0.6659958362579346,-0.0861319974064827,-0.2724458873271942
1772883682924034300,4.305034423828125,0.60429847240448,-0.07788532227277756,-0.2620611786842346
1772883682940640000,4.321639892578125,0.5227479338645935,0.0029016099870204926,-0.20845776796340942
1772883682957243000,4.338242919921875,0.4254676401615143,0.1508837193250656,-0.1088867336511612
1772883682973849000,4.35484912109375,0.3280346393585205,0.26251932978630066,-0.02519819140434265
1772883682990454300,4.371454345703125,0.23869559168815613,0.3149010241031647,0.04398229718208313
1772883683007058400,4.388058349609375,0.17577648162841797,0.3000875413417816,0.08628471940755844
1772883683023664000,4.4046640625,0.12049316614866257,0.25442537665367126,0.12461651116609573
1772883683040267800,4.421267822265625,0.03695734590291977,0.17241671681404114,0.1495092660188675
1772883683056874800,4.437874755859375,-0.06765332818031311,0.04138612002134323,0.1498146951198578
1772883683073479700,4.454479736328125,-0.14996741712093353,-0.08200865983963013,0.14095716178417206
1772883683090084000,4.471083984375,-0.2148718535900116,-0.10033461451530457,0.12996158003807068
1772883683106689000,4.48768896484375,-0.3124575614929199,-0.06979135423898697,0.09483683109283447
1772883683123295500,4.50429541015625,-0.44135013222694397,-0.033139441162347794,0.035582900047302246
1772883683139883300,4.52088330078125,-0.5679519772529602,-0.0010690141934901476,-0.015577063895761967
1772883683156511500,4.537511474609375,-0.6368269920349121,0.06154467165470123,-0.0019853119738399982
1772883683173107200,4.554107177734375,-0.6311765313148499,0.12767083942890167,0.05757404863834381
1772883683189702400,4.570702392578125,-0.5830708742141724,0.20295998454093933,0.08155050873756409
1772883683206306600,4.587306640625,-0.5387831330299377,0.2629774808883667,0.07284568250179291
1772883683222911500,4.603911376953125,-0.5372560024261475,0.22876903414726257,0.07116580009460449
1772883683239516700,4.6205166015625,-0.537408709526062,0.024434609338641167,0.046731192618608475
1772883683256123100,4.637123046875,-0.5082398653030396,-0.23228150606155396,-0.010231993161141872
1772883683272727000,4.65372705078125,-0.5103778839111328,-0.41859540343284607,-0.18616119027137756
1772883683289332500,4.67033251953125,-0.5615378618240356,-0.5021312236785889,-0.46105054020881653
1772883683305941000,4.68694091796875,-0.6436992287635803,-0.41431936621665955,-0.6261368989944458
1772883683322557200,4.70355712890625,-0.6985244154930115,-0.14034628868103027,-0.5600107312202454
1772883683339144700,4.720144775390625,-0.6455318331718445,0.13866640627384186,-0.3251330256462097
1772883683355766800,4.736766845703125,-0.5076290369033813,0.29626965522766113,-0.09697485715150833
1772883683372371500,4.753371337890625,-0.3465133011341095,0.30711251497268677,0.044135015457868576
1772883683388961000,4.7699609375,-0.20815233886241913,0.1895209401845932,0.16768251359462738
1772883683405581800,4.786581787109375,-0.11285735666751862,-0.04260785132646561,0.2687807083129883
1772883683422186500,4.8031865234375,-0.09407325088977814,-0.27061331272125244,0.280539870262146
1772883683438815700,4.819815673828125,-0.13041973114013672,-0.3628539443016052,0.2093740701675415
1772883683455398700,4.836398681640625,-0.18784105777740479,-0.34895676374435425,0.10965031385421753
1772883683472002300,4.853002197265625,-0.2574796974658966,-0.30741792917251587,-0.005192354787141085
1772883683488607700,4.869607666015625,-0.3321579694747925,-0.21441370248794556,-0.1495092660188675
1772883683505212700,4.886212646484375,-0.37690386176109314,-0.05955936014652252,-0.337044894695282
1772883683521840400,4.90284033203125,-0.39935314655303955,0.10506882518529892,-0.5676465034484863
1772883683538410200,4.91941015625,-0.42500948905944824,0.21914790570735931,-0.697149932384491
1772883683555028500,4.936028564453125,-0.3920227587223053,0.35781431198120117,-0.6163630485534668
1772883683571633200,4.952633056640625,-0.2710714638233185,0.46700647473335266,-0.44837507605552673
1772883683588239400,4.9692392578125,-0.1488984078168869,0.4202753007411957,-0.3602577745914459
1772883683604843300,4.98584326171875,-0.08643743395805359,0.247094988822937,-0.36392298340797424
1772883683621440300,5.002440185546875,-0.0780380368232727,0.01038470957428217,-0.3911064863204956
1772883683638065400,5.0190654296875,-0.06750060617923737,-0.14767667651176453,-0.38347065448760986
1772883683654659800,5.035659912109375,-0.0630718395113945,-0.21807889640331268,-0.38499781489372253
1772883683671246800,5.052246826171875,-0.05390885844826698,-0.19746218621730804,-0.35750889778137207
1772883683687855400,5.06885546875,-0.052381694316864014,-0.13179416954517365,-0.25442537665367126
1772883683704460800,5.085460693359375,-0.07360926270484924,-0.03344487398862839,-0.13255776464939117
1772883683721066500,5.10206640625,-0.0910189226269722,-0.0007635815418325365,-0.0630718395113945
1772883683737670700,5.118670654296875,-0.08491026610136032,0.014508049935102463,-0.044745877385139465
1772883683754275800,5.13527587890625,-0.06750060617923737,-0.04001167416572571,-0.05497787147760391
1772883683770881000,5.151881103515625,-0.06154467165470123,-0.13500121235847473,-0.05360342562198639
1772883683787487000,5.168487060546875,-0.055283304303884506,-0.10644327104091644,-0.014049900695681572
1772883683804110800,5.18511083984375,-0.03588833287358284,-0.04764748737215996,0.04764748737215996
1772883683820707300,5.201707275390625,-0.0022907445672899485,-0.006719517521560192,0.09666942805051804
1772883683837298400,5.21829833984375,0.02977968007326126,-0.05146539583802223,0.1258382350206375
1772883683853921500,5.234921630859375,0.04566217586398125,-0.1563815027475357,0.1281289905309677
1772883683870525400,5.251525390625,0.040622539818286896,-0.27870726585388184,0.128434419631958
1772883683887130600,5.268130615234375,0.035582900047302246,-0.3078760802745819,0.16798794269561768
1772883683903735300,5.2847353515625,0.05146539583802223,-0.2076941877603531,0.2116648107767105
1772883683920341500,5.301341552734375,0.0757472887635231,-0.12996158003807068,0.20845776796340942
1772883683936941800,5.31794189453125,0.0734565481543541,-0.07620543986558914,0.1495092660188675
1772883683953550800,5.33455078125,0.021838432177901268,-0.12018773704767227,0.07147123664617538
1772883683970156500,5.351156494140625,-0.10277807712554932,-0.35613444447517395,0.04230241850018501
1772883683986762800,5.3677626953125,-0.20082195103168488,-0.5635231733322144,0.08536841720342636
1772883684003366100,5.3843662109375,-0.2402227520942688,-0.5479460954666138,0.13301590085029602
1772883684019971600,5.4009716796875,-0.2194533348083496,-0.31642818450927734,0.1459967941045761
1772883684036579800,5.417579833984375,-0.1385136991739273,-0.0403171069920063,0.20372356474399567
1772883684053182700,5.4341826171875,0.006108652334660292,0.2961169183254242,0.34865134954452515
1772883684069787400,5.450787353515625,0.17867808043956757,0.670577347278595,0.48258355259895325
1772883684086387700,5.4673876953125,0.34773504734039307,0.8910996913909912,0.5035057067871094
1772883684103001300,5.48400146484375,0.46868637204170227,0.7531968355178833,0.44257187843322754
1772883684119603200,5.500603271484375,0.5035057067871094,0.3825543522834778,0.3695734739303589
1772883684136211000,5.5172109375,0.4662429094314575,-0.006261368747800589,0.33735033869743347
1772883684152809200,5.533809326171875,0.45234572887420654,-0.23182335495948792,0.3562871515750885
1772883684169404200,5.550404052734375,0.4602869749069214,-0.3214678466320038,0.35521814227104187
1772883684186010000,5.567010009765625,0.4671591818332672,-0.33276882767677307,0.26404649019241333
1772883684202614500,5.583614501953125,0.44974952936172485,-0.2646573781967163,0.09147707372903824
1772883684219219500,5.600219482421875,0.41599923372268677,-0.15286903083324432,-0.12018773704767227
1772883684235824400,5.616824462890625,0.3724750876426697,-0.0679587572813034,-0.2678644061088562
1772883684252430800,5.633430908203125,0.32971450686454773,-0.012675453908741474,-0.31551191210746765
1772883684269035000,5.650034912109375,0.3116939961910248,0.009162978269159794,-0.27290403842926025
1772883684285640000,5.666639892578125,0.32070425152778625,0.04535674303770065,-0.20799961686134338
1772883684302262000,5.683261962890625,0.346818745136261,0.1137736514210701,-0.19104810059070587
1772883684318848000,5.699847900390625,0.3660610020160675,0.09834930300712585,-0.2203696370124817
1772883684335455200,5.716455322265625,0.3640756905078888,-0.03039054572582245,-0.252287358045578
1772883684352060700,5.733060791015625,0.32620203495025635,-0.17623461782932281,-0.22082778811454773
1772883684368665600,5.74966552734375,0.28069257736206055,-0.24083362519741058,-0.12690725922584534
1772883684385271800,5.766271728515625,0.2834414839744568,-0.1794416606426239,-0.0029016099870204926
1772883684401875700,5.782875732421875,0.3271183371543884,-0.015271631069481373,0.12079860270023346
1772883684418498300,5.799498291015625,0.36651915311813354,0.16050484776496887,0.2217440903186798
1772883684435083300,5.816083251953125,0.3617849349975586,0.25671613216400146,0.28267788887023926
1772883684451706400,5.832706298828125,0.31184670329093933,0.28878653049468994,0.33108896017074585
1772883684468310000,5.84931005859375,0.2370157092809677,0.23579397797584534,0.35185837745666504
1772883684484915700,5.865915771484375,0.12950342893600464,0.05742133408784866,0.38377609848976135
1772883684501520100,5.88252001953125,-0.01771509274840355,-0.0936150997877121,0.4219551682472229
1772883684518126300,5.899126220703125,-0.1589776873588562,-0.19685132801532745,0.3842342495918274
1772883684534736000,5.91573583984375,-0.3010038435459137,-0.3026837408542633,0.2837468981742859
1772883684551335200,5.932335205078125,-0.45234572887420654,-0.37339138984680176,0.15821409225463867
1772883684567941400,5.94894140625,-0.5768095254898071,-0.3897320330142975,0.06322455406188965
1772883684584547000,5.965547119140625,-0.6763805150985718,-0.30695977807044983,0.034666601568460464
1772883684601151200,5.982151123046875,-0.7312057018280029,-0.13377949595451355,0.031154127791523933
1772883684617756000,5.998755859375,-0.7316638231277466,0.027183502912521362,-0.04932736977934837
1772883684634345000,6.015344970703125,-0.7402159571647644,0.00733038317412138,-0.27641651034355164
1772883684650950100,6.0319501953125,-0.7870998978614807,-0.13301590085029602,-0.5375614166259766
1772883684667558100,6.04855810546875,-0.8484918475151062,-0.22937989234924316,-0.6386595964431763
1772883684684163000,6.0651630859375,-0.8683449625968933,-0.11484266817569733,-0.5584835410118103
1772883684700768300,6.081768310546875,-0.808174729347229,0.08399397134780884,-0.4488332271575928
1772883684717374200,6.098374267578125,-0.6627888083457947,0.34055736660957336,-0.31154128909111023
1772883684733978400,6.114978271484375,-0.4541783034801483,0.6394231915473938,-0.13271047174930573
1772883684750583800,6.131583740234375,-0.24923302233219147,0.8341364860534668,-0.021991148591041565
1772883684767188700,6.148188720703125,-0.12370020896196365,0.7834346890449524,0.029474247246980667
1772883684783794700,6.164794677734375,-0.09224065393209457,0.4254676401615143,0.13729196786880493
1772883684800416000,6.181416015625,-0.11239920556545258,-0.096211276948452,0.3222314119338989
1772883684817017600,6.198017578125,-0.16264286637306213,-0.4207334518432617,0.46181413531303406
1772883684833606100,6.214606201171875,-0.24755313992500305,-0.5416847467422485,0.45142942667007446
1772883684850229500,6.2312294921875,-0.3413209617137909,-0.5955936312675476,0.33368512988090515
1772883684866833200,6.247833251953125,-0.4236350357532501,-0.5958990454673767,0.15363261103630066
1772883684883421700,6.264421630859375,-0.4723515510559082,-0.42271876335144043,-0.019089538604021072
1772883684900043500,6.28104345703125,-0.4966334402561188,-0.03451388701796532,-0.1014036312699318
1772883684916649200,6.297649169921875,-0.47708576917648315,0.3599523603916168,-0.08903361111879349
1772883684933260800,6.3142607421875,-0.4259257912635803,0.5801692605018616,-0.02825251780450344
1772883684949858800,6.33085888671875,-0.38438695669174194,0.5981897711753845,0.04917465150356293
1772883684966463700,6.347463623046875,-0.3484986126422882,0.44165557622909546,0.10231992602348328
1772883684983070200,6.3640703125,-0.2874121069908142,0.1693623960018158,0.09957103431224823
1772883684999674400,6.38067431640625,-0.20311269164085388,-0.11988230794668198,0.07971791177988052
1772883685016279000,6.397279052734375,-0.1267545372247696,-0.30970868468284607,0.07269296050071716
1772883685032870700,6.41387060546875,-0.08536841720342636,-0.38026362657546997,0.0555887371301651
1772883685049494800,6.430494873046875,-0.09010262042284012,-0.3361285924911499,0.01237002108246088
1772883685066094600,6.447094482421875,-0.11698069423437119,-0.17608191072940826,-0.03481931984424591
1772883685082700300,6.4637001953125,-0.12461651116609573,-0.007024950347840786,-0.09926560521125793
1772883685099305200,6.48030517578125,-0.11713340878486633,0.06688974797725677,-0.14004085958003998
1772883685115910700,6.49691064453125,-0.10476338863372803,0.12247848510742188,-0.10094548016786575
1772883685132510700,6.5135107421875,-0.06643159687519073,0.15332718193531036,-0.02229658141732216
1772883685149106700,6.530106689453125,-0.04489859566092491,0.1281289905309677,0.010995574295520782
1772883685174012200,6.55501220703125,-0.052381694316864014,0.00045814894838258624,-0.021380282938480377
1772883685190608100,6.571608154296875,-0.030543262138962746,-0.041233405470848083,-0.0027488935738801956
1772883685207230200,6.588230224609375,0.01924225501716137,-0.05772676691412926,0.01572977937757969
1772883685223829800,6.604829833984375,0.06750060617923737,-0.07208210229873657,-0.030085112899541855
1772883685240434700,6.6214345703125,0.09682214260101318,-0.08506298810243607,-0.10980302840471268
1772883685257041200,6.638041259765625,0.126143679022789,-0.08048149943351746,-0.12049316614866257
1772883685273646000,6.65464599609375,0.16722436249256134,-0.09437867999076843,-0.04214970022439957
1772883685290250200,6.671250244140625,0.2122756689786911,-0.1466076523065567,0.08032877743244171
1772883685306873600,6.68787353515625,0.23976461589336395,-0.11881329119205475,0.15836681425571442
1772883685323474700,6.704474609375,0.23319780826568604,-0.15225815773010254,0.10002918541431427
1772883685340080400,6.721080322265625,0.20082195103168488,-0.28787025809288025,-0.07590000331401825
1772883685356680700,6.7376806640625,0.14355333149433136,-0.43249258399009705,-0.2935207486152649
1772883685373295000,6.754295166015625,0.05772676691412926,-0.46013423800468445,-0.42668938636779785
1772883685389898200,6.770898193359375,-0.018020525574684143,-0.3700316250324249,-0.38499781489372253
1772883685406492700,6.78749267578125,-0.03634648025035858,-0.10919216275215149,-0.17348572611808777
1772883685423109000,6.804109130859375,0.05268712714314461,0.2422080636024475,0.09468411654233932
1772883685439711200,6.820711181640625,0.23518311977386475,0.5157229900360107,0.2909245789051056
1772883685456311000,6.83731103515625,0.40286561846733093,0.6094908118247986,0.36483925580978394
1772883685472921000,6.853921142578125,0.5041165351867676,0.46242499351501465,0.3349068760871887
1772883685489528800,6.87052880859375,0.5328271985054016,0.17180584371089935,0.3013092875480652
1772883685506132500,6.887132568359375,0.5360342264175415,-0.01114829070866108,0.31413745880126953
1772883685522731800,6.903731689453125,0.5568036437034607,-0.024892758578062057,0.35155296325683594
1772883685539346000,6.920345947265625,0.5419901609420776,-0.06658431142568588,0.32620203495025635
1772883685555942400,6.9369423828125,0.48579058051109314,-0.19456058740615845,0.20952677726745605
1772883685572558800,6.953558837890625,0.4054618179798126,-0.33246341347694397,0.012522737495601177
1772883685589149200,6.970149169921875,0.3254384696483612,-0.44226643443107605,-0.16920967400074005
1772883685605766400,6.986766357421875,0.2451096773147583,-0.3917173445224762,-0.24404066801071167
1772883685622360800,7.00336083984375,0.19165897369384766,-0.23777928948402405,-0.2025018334388733
1772883685638961200,7.019961181640625,0.2093740701675415,0.01970040425658226,-0.05161811411380768
1772883685655563000,7.03656298828125,0.29993483424186707,0.21349740028381348,0.0959058403968811
1772883685672169700,7.053169677734375,0.380721777677536,0.2321287989616394,0.15775595605373383
1772883685688769500,7.06976953125,0.4277583956718445,0.19028452038764954,0.15546520054340363
1772883685705383000,7.0863828125,0.4334088861942291,0.1319468915462494,0.1488984078168869
1772883685721983500,7.1029833984375,0.42180246114730835,0.1742493063211441,0.20601430535316467
1772883685738589700,7.119589599609375,0.3675881624221802,0.26542094349861145,0.2643519341945648
1772883685755193900,7.13619384765625,0.2915354371070862,0.34636059403419495,0.2587014436721802
1772883685771799800,7.1527998046875,0.21884247660636902,0.40683624148368835,0.21105393767356873
1772883685788412200,7.169412109375,0.14874568581581116,0.3933972120285034,0.18020524084568024
1772883685805019000,7.186018798828125,0.11056660860776901,0.3520110845565796,0.1699732542037964
1772883685821626600,7.202626708984375,0.09010262042284012,0.31551191210746765,0.18967366218566895
1772883685838236000,7.21923583984375,0.05268712714314461,0.18784105777740479,0.18814650177955627
1772883685854835500,7.23583544921875,-0.016340645030140877,-0.0009162978967651725,0.1875356286764145
1772883685871445800,7.25244580078125,-0.08765916526317596,-0.1134682223200798,0.20173825323581696
1772883685888052700,7.269052734375,-0.16630806028842926,-0.18997909128665924,0.18555031716823578
1772883685904652800,7.28565283203125,-0.26022860407829285,-0.2402227520942688,0.10170906037092209
1772883685921258800,7.3022587890625,-0.3481931984424591,-0.2643519341945648,-0.019089538604021072
1772883685937864700,7.31886474609375,-0.42867469787597656,-0.2863430976867676,-0.10965031385421753
1772883685954466800,7.335466796875,-0.4990769028663635,-0.3049744665622711,-0.14996741712093353
1772883685971077600,7.35207763671875,-0.5485569834709167,-0.3962988257408142,-0.10186178237199783
1772883685987679500,7.368679443359375,-0.5598580241203308,-0.43707409501075745,0.040164388716220856
1772883686004281600,7.385281494140625,-0.4928155243396759,-0.31871894001960754,0.1716531366109848
1772883686020893700,7.401893798828125,-0.40256020426750183,-0.058948494493961334,0.1667662113904953
1772883686037495600,7.41849560546875,-0.38209620118141174,0.1258382350206375,-0.020463986322283745
1772883686054100000,7.435099853515625,-0.4346306324005127,0.049785517156124115,-0.2646573781967163
1772883686070706000,7.451705810546875,-0.5558874011039734,-0.13561208546161652,-0.4427245855331421
1772883686087309800,7.468309814453125,-0.6458373069763184,-0.13072516024112701,-0.4879286289215088
1772883686103916500,7.48491650390625,-0.6563746929168701,0.05054909735918045,-0.4599815309047699
1772883686120503300,7.50150341796875,-0.5833762884140015,0.3020728528499603,-0.35735616087913513
1772883686137112600,7.518112548828125,-0.4355469346046448,0.5462662577629089,-0.23136521875858307
1772883686153703700,7.53470361328125,-0.2617557644844055,0.6009386777877808,-0.08643743395805359
1772883686170323200,7.5513232421875,-0.10155634582042694,0.4764748811721802,0.12782354652881622
1772883686186927600,7.567927734375,0.040164388716220856,0.20372356474399567,0.37461310625076294
1772883686203520300,7.584520263671875,0.11484266817569733,-0.15760323405265808,0.523511528968811
1772883686220137500,7.601137451171875,0.07192938029766083,-0.4847215712070465,0.5187773108482361
1772883686236743700,7.61774365234375,-0.04612032696604729,-0.6287330389022827,0.4115704596042633
1772883686253347600,7.63434765625,-0.1713477075099945,-0.6730207800865173,0.2054034322500229
1772883686269951000,7.650950927734375,-0.2964223623275757,-0.7293730974197388,-0.04184427112340927
1772883686286574800,7.667574951171875,-0.4202753007411957,-0.7017314434051514,-0.20983220636844635
1772883686303178200,7.68417822265625,-0.5125159621238708,-0.49037206172943115,-0.2736676335334778
1772883686319781600,7.70078173828125,-0.5510004758834839,-0.10445795953273773,-0.22800545394420624
1772883686336388000,7.71738818359375,-0.4847215712070465,0.2825251817703247,-0.16264286637306213
1772883686352988200,7.73398828125,-0.3497203588485718,0.52702397108078,-0.1007927656173706
1772883686369602000,7.75060205078125,-0.2562579810619354,0.588263213634491,-0.07391469180583954
1772883686386208800,7.767208740234375,-0.20830504596233368,0.4489859640598297,-0.05803219974040985
1772883686402802200,7.78380224609375,-0.16325373947620392,0.12095131725072861,-0.013286318629980087
1772883686419412200,7.800412109375,-0.04886921867728233,-0.1469130963087082,0.10125091671943665
1772883686436019000,7.81701904296875,0.05360342562198639,-0.2353358417749405,0.20051652193069458
1772883686452622600,7.83362255859375,0.09483683109283447,-0.26572638750076294,0.22418753802776337
1772883686469229600,7.8502294921875,0.08949175477027893,-0.19394971430301666,0.17440202832221985
1772883686485829400,7.866829345703125,0.06673702597618103,-0.027947084978222847,0.08017606288194656
1772883686502443300,7.883443359375,0.05207626149058342,0.14584407210350037,-0.004581489134579897
1772883686519043000,7.90004296875,0.030085112899541855,0.28787025809288025,-0.0019853119738399982
1772883686535649500,7.9166494140625,0.030085112899541855,0.299018532037735,0.009773843921720982
1772883686552249300,7.933249267578125,0.04993823543190956,0.20631973445415497,-0.004886921960860491
1772883686568864300,7.9498642578125,0.096211276948452,0.16249015927314758,-0.051770828664302826
1772883686585460000,7.9664599609375,0.14752395451068878,0.21334469318389893,-0.07162395119667053
1772883686602070800,7.98307080078125,0.20662516355514526,0.2025018334388733,-0.04230241850018501
1772883686618660000,7.99966015625,0.29825496673583984,0.1765400618314743,-0.02367102913558483
1772883686635266600,8.0162666015625,0.3455969989299774,0.07666359096765518,-0.0455094613134861
1772883686651869700,8.03286962890625,0.3251330256462097,-0.07147123664617538,-0.04214970022439957
1772883686668477700,8.049477783203125,0.30894508957862854,-0.04886921867728233,0.04199698567390442
1772883686685080800,8.066080810546875,0.337044894695282,0.10445795953273773,0.11621711403131485
1772883686701687000,8.08268701171875,0.3191770911216736,0.21578814089298248,0.14477506279945374
1772883686718291200,8.099291259765625,0.2742784917354584,0.3550654351711273,0.15821409225463867
1772883686734897200,8.115897216796874,0.20723603665828705,0.43447789549827576,0.13561208546161652
1772883686751502800,8.1325029296875,0.10155634582042694,0.25503623485565186,0.1186605766415596
1772883686768106000,8.14910595703125,-0.02519819140434265,-0.11239920556545258,0.013133603148162365
1772883686784724500,8.165724365234375,-0.10247264802455902,-0.25564709305763245,-0.09269879758358002
1772883686801336000,8.182336181640625,-0.11301007121801376,-0.1267545372247696,-0.12889257073402405
1772883686817919200,8.198919189453125,-0.05375614017248154,0.05345070734620094,-0.08048149943351746
1772883686834542000,8.2155419921875,0.05467243865132332,0.3246748745441437,0.10903944820165634
1772883686851143400,8.232143310546874,0.13026700913906097,0.6369797587394714,0.36682456731796265
1772883686867754000,8.24875390625,0.20341812074184418,0.8035932183265686,0.5132794976234436
1772883686884356000,8.265356201171874,0.30925053358078003,0.7565566301345825,0.4938845634460449
1772883686900962600,8.281962646484375,0.46929723024368286,0.585667073726654,0.3700316250324249
1772883686917566500,8.29856640625,0.6035348773002625,0.3052799105644226,0.2154827117919922
1772883686934172000,8.315171875,0.7011205554008484,0.22189679741859436,0.1638645976781845
1772883686950773000,8.33177294921875,0.7837401032447815,0.4801400899887085,0.15241087973117828
1772883686967386400,8.348386474609375,0.7336491346359253,0.4738787114620209,0.1137736514210701
1772883686983986700,8.364986572265625,0.6239988207817078,0.24495697021484375,-0.0006108652451075613
1772883687000593400,8.381593505859374,0.5302310585975647,-0.19425514340400696,-0.19379699230194092
1772883687017196800,8.39819677734375,0.49846604466438293,-0.5676465034484863,-0.3614795207977295
1772883687033803000,8.414802978515626,0.5870414972305298,-0.45326200127601624,-0.3315471112728119
1772883687050411300,8.431411376953125,0.7255551815032959,0.23579397797584534,-0.0009162978967651725
1772883687067009800,8.448009765625,0.717308521270752,0.9639453291893005,0.27458393573760986
1772883687083617500,8.464617431640624,0.44577890634536743,0.9179777503013611,0.20066922903060913
1772883687100206600,8.48120654296875,0.3349068760871887,0.3393356502056122,-0.18906278908252716
1772883687116814300,8.497814453125,0.2987131178379059,-0.020005837082862854,-0.4473060667514801
1772883687133420000,8.514419921875,0.17821992933750153,-0.5386304259300232,-0.4308127164840698
