time,seconds_elapsed,z,y,x
1772883678768576000,0.149575927734375,0.37079519033432007,-0.11728613078594208,0.5053382515907288
1772883678785190100,0.166190185546875,0.3419318199157715,-0.05054909735918045,0.5154175758361816
1772883678801791500,0.18279150390625,0.29657506942749023,0.00366519158706069,0.4830417037010193
1772883678818399500,0.1993994140625,0.24159720540046692,-0.03588833287358284,0.4216497242450714
1772883678835002400,0.21600244140625,0.1540907621383667,-0.09575312584638596,0.37950003147125244
1772883678851612400,0.2326123046875,0.059406645596027374,-0.16310101747512817,0.4075998365879059
1772883678868232000,0.24923193359375,-0.04092797264456749,-0.21273382008075714,0.48166725039482117
1772883678884833300,0.265833251953125,-0.09911288321018219,-0.2344195395708084,0.5279402732849121
1772883678901437400,0.2824375,-0.1264491081237793,-0.2073887437582016,0.5502368807792664
1772883678918045000,0.299044921875,-0.1385136991739273,-0.23900102078914642,0.5073235630989075
1772883678934648800,0.31564892578125,-0.1059851199388504,-0.275347501039505,0.45494189858436584
1772883678951254300,0.332254150390625,-0.09957103431224823,-0.35185837745666504,0.3865249752998352
1772883678967859200,0.348859130859375,-0.18219055235385895,-0.38148534297943115,0.3003929853439331
1772883678984463600,0.365463623046875,-0.3527746796607971,-0.3520110845565796,0.22220222651958466
1772883679001068300,0.382068359375,-0.5345070958137512,-0.24862214922904968,0.15317445993423462
1772883679017675300,0.39867529296875,-0.6346889734268188,-0.11713340878486633,0.02535090781748295
1772883679034279000,0.41527880859375,-0.6185010671615601,0.07116580009460449,-0.1010981947183609
1772883679050868500,0.431868408203125,-0.5167919993400574,0.30711251497268677,-0.18555031716823578
1772883679067491000,0.448490966796875,-0.3446807265281677,0.5868887901306152,-0.19685132801532745
1772883679084097000,0.465096923828125,-0.1511891484260559,0.8431467413902283,-0.10567969083786011
1772883679100699400,0.481699462890625,0.0022907445672899485,0.9584475755691528,0.04856378585100174
1772883679117305300,0.498305419921875,0.11789698898792267,0.8422304391860962,0.21135938167572021
1772883679133909800,0.51490966796875,0.19104810059070587,0.5813909769058228,0.37048977613449097
1772883679150510300,0.53151025390625,0.21365012228488922,0.2577851414680481,0.5148066878318787
1772883679167118600,0.54811865234375,0.16264286637306213,-0.04153883829712868,0.633009135723114
1772883679183729200,0.564729248046875,0.06719517707824707,-0.2600758671760559,0.6574437022209167
1772883679200325600,0.58132568359375,-0.029626963660120964,-0.46181413531303406,0.5203045010566711
1772883679216920600,0.597920654296875,-0.12217304855585098,-0.4957171380519867,0.303600013256073
1772883679233539800,0.614539794921875,-0.20357084274291992,-0.3620903789997101,0.08506298810243607
1772883679250144300,0.631144287109375,-0.24327708780765533,-0.18585574626922607,-0.08521570265293121
1772883679266735600,0.647735595703125,-0.2747366428375244,0.06658431142568588,-0.16722436249256134
1772883679283344000,0.66434375,-0.299018532037735,0.2971859276294708,-0.19120082259178162
1772883679299948500,0.680948486328125,-0.2955060601234436,0.41890084743499756,-0.19547687470912933
1772883679316552400,0.697552490234375,-0.24572055041790009,0.37369680404663086,-0.21181751787662506
1772883679333160000,0.714159912109375,-0.1950187236070633,0.17104226350784302,-0.2154827117919922
1772883679349764600,0.7307646484375,-0.15286903083324432,-0.04566217586398125,-0.20326541364192963
1772883679366386400,0.747386474609375,-0.11224649101495743,-0.18509216606616974,-0.23075434565544128
1772883679382983200,0.763983154296875,-0.07177666574716568,-0.25045475363731384,-0.2996293902397156
1772883679399596500,0.780596435546875,-0.05406157299876213,-0.2525927722454071,-0.342695415019989
1772883679416198100,0.7971982421875,-0.03787364438176155,-0.22220222651958466,-0.33719760179519653
1772883679432796200,0.813796142578125,-0.0007635815418325365,-0.16783522069454193,-0.2984076738357544
1772883679449423600,0.830423583984375,0.03375030308961868,-0.1592831164598465,-0.2742784917354584
1772883679466016300,0.847016357421875,0.05513058975338936,-0.15027284622192383,-0.24144448339939117
1772883679482601700,0.863601806640625,0.06582073122262955,-0.1719585657119751,-0.21013765037059784
1772883679499223300,0.880223388671875,0.09193521738052368,-0.16019940376281738,-0.18325957655906677
1772883679515829800,0.896829833984375,0.12186761945486069,-0.11881329119205475,-0.18005253374576569
1772883679532432400,0.913432373046875,0.14187344908714294,-0.06352998316287994,-0.19562959671020508
1772883679549011500,0.930011474609375,0.15729780495166779,-0.02367102913558483,-0.22937989234924316
1772883679565644300,0.946644287109375,0.16829337179660797,-0.07024950534105301,-0.2171625941991806
1772883679582246700,0.96324658203125,0.19349156320095062,-0.12232576310634613,-0.14614951610565186
1772883679598856000,0.97985595703125,0.2330450862646103,-0.16325373947620392,-0.04077525436878204
1772883679615458300,0.996458251953125,0.2444988191127777,-0.24266621470451355,0.039248090237379074
1772883679632063000,1.01306298828125,0.24037547409534454,-0.29367345571517944,0.04612032696604729
1772883679648666600,1.02966650390625,0.2736676335334778,-0.2220495194196701,0.06185010448098183
1772883679665274000,1.046274169921875,0.33719760179519653,-0.0659734457731247,0.14828753471374512
1772883679681881600,1.062881591796875,0.4277583956718445,-0.053297992795705795,0.25305092334747314
1772883679698485000,1.079485107421875,0.536797821521759,-0.09239336848258972,0.3300199508666992
1772883679715092200,1.09609228515625,0.6007859706878662,-0.2194533348083496,0.2996293902397156
1772883679731694300,1.1126943359375,0.541532039642334,-0.3312416672706604,0.17180584371089935
1772883679748270300,1.129270263671875,0.3761402666568756,-0.3914119005203247,0.026419922709465027
1772883679764893000,1.145892822265625,0.17272214591503143,-0.3724750876426697,-0.08246681094169617
1772883679781496300,1.162496337890625,0.052839845418930054,-0.2623666226863861,-0.11178833991289139
1772883679798105000,1.17910498046875,0.02474004216492176,0.05161811411380768,-0.024892758578062057
1772883679814708000,1.1957080078125,0.08765916526317596,0.5308418869972229,0.18325957655906677
1772883679831311600,1.2123115234375,0.2292271852493286,1.0071641206741333,0.39187005162239075
1772883679847922000,1.228921875,0.4254676401615143,1.2728904485702515,0.4813618063926697
1772883679864534500,1.245534423828125,0.603687584400177,1.2990049123764038,0.44058656692504883
1772883679881126000,1.2621259765625,0.6904304623603821,1.0520626306533813,0.33169981837272644
1772883679897747000,1.278746826171875,0.7098253965377808,0.7376197576522827,0.266184538602829
1772883679914350600,1.2953505859375,0.7345654368400574,0.4709770977497101,0.2483167201280594
1772883679930958800,1.311958740234375,0.7849618196487427,0.29077184200286865,0.21991148591041565
1772883679947575800,1.328575927734375,0.7832819819450378,0.12049316614866257,0.12461651116609573
1772883679964171300,1.345171142578125,0.6864598393440247,-0.006261368747800589,-0.04657847434282303
1772883679980770300,1.361770263671875,0.5309945940971375,-0.004428773187100887,-0.22449298202991486
1772883679997384400,1.378384521484375,0.4014911949634552,0.17043140530586243,-0.32268956303596497
1772883680013976600,1.3949765625,0.3680463135242462,0.48777589201927185,-0.29764407873153687
1772883680030597400,1.411597412109375,0.42042800784111023,0.770606517791748,-0.23808473348617554
1772883680047179300,1.42817919921875,0.5196936130523682,0.917672336101532,-0.23716843128204346
1772883680063778600,1.444778564453125,0.6053674817085266,0.9019425511360168,-0.2837468981742859
1772883680080416000,1.461416015625,0.6397286057472229,0.7214318513870239,-0.29993483424186707
1772883680097009700,1.478009765625,0.6377432942390442,0.4155410826206207,-0.23182335495948792
1772883680113611300,1.494611328125,0.6070473194122314,0.09117163717746735,-0.12247848510742188
1772883680130219000,1.511218994140625,0.5238169431686401,-0.17669276893138885,-0.018936822190880775
1772883680146815500,1.5278154296875,0.38499781489372253,-0.2997821271419525,0.11407908797264099
1772883680163427600,1.544427490234375,0.27840182185173035,-0.23289237916469574,0.24556782841682434
1772883680180019700,1.561019775390625,0.22861631214618683,-0.12293662875890732,0.2922990322113037
1772883680196639500,1.577639404296875,0.1866193264722824,-0.04489859566092491,0.22602014243602753
1772883680213242400,1.594242431640625,0.14416420459747314,-0.001679879380390048,0.10033461451530457
1772883680229849900,1.610849853515625,0.0858265683054924,0.021991148591041565,0.01237002108246088
1772883680246435300,1.627435302734375,0.0027488935738801956,0.03130684420466423,-0.017867809161543846
1772883680263049700,1.6440498046875,-0.09269879758358002,0.0012217304902151227,-0.04795292019844055
1772883680279650800,1.66065087890625,-0.17760907113552094,-0.04214970022439957,-0.11468994617462158
1772883680296256300,1.67725634765625,-0.2538145184516907,-0.02275473065674305,-0.18860463798046112
1772883680312861000,1.69386083984375,-0.3488040566444397,-0.04382958263158798,-0.26771169900894165
1772883680329467000,1.710466796875,-0.49586987495422363,-0.18219055235385895,-0.37629300355911255
1772883680346126300,1.727126220703125,-0.6991352438926697,-0.3614795207977295,-0.5076290369033813
1772883680362688800,1.743688720703125,-0.897513747215271,-0.4127921760082245,-0.5949827432632446
1772883680379295200,1.760295166015625,-1.0459539890289307,-0.28038713335990906,-0.6543893814086914
1772883680395951900,1.776951904296875,-1.1635456085205078,0.007941247895359993,-0.7096726894378662
1772883680412504300,1.79350439453125,-1.1966849565505981,0.4447098970413208,-0.7736608386039734
1772883680429113300,1.81011328125,-1.1552989482879639,1.0129673480987549,-0.8521569967269897
1772883680445704400,1.826704345703125,-1.1036807298660278,1.291369080543518,-1.0355693101882935
1772883680462319600,1.843319580078125,-1.1297953128814697,1.2583824396133423,-1.2330315113067627
1772883680478926800,1.8599267578125,-1.161102056503296,1.1119275093078613,-1.3333661556243896
1772883680495529200,1.876529296875,-1.0580185651779175,1.0267117023468018,-1.3041973114013672
1772883680512126500,1.89312646484375,-0.8437576293945312,0.899040937423706,-1.1623238325119019
1772883680528741400,1.909741455078125,-0.5659666657447815,0.703411340713501,-0.8863654732704163
1772883680545331000,1.9263310546875,-0.31322115659713745,0.4607451260089874,-0.46990808844566345
1772883680561953800,1.942953857421875,-0.10170906037092209,0.24923302233219147,0.029168816283345222
1772883680578553300,1.95955322265625,0.12370020896196365,0.04077525436878204,0.461355984210968
1772883680595147000,1.97614697265625,0.3410155177116394,-0.22327125072479248,0.7379252314567566
1772883680611775200,1.992775146484375,0.45753806829452515,-0.5795583724975586,0.88987797498703
1772883680628363500,2.009363525390625,0.41691553592681885,-1.0030407905578613,0.9917397499084473
1772883680644966100,2.025966064453125,0.24953845143318176,-1.4485142230987549,1.0900890827178955
1772883680661583600,2.04258349609375,0.06643159687519073,-1.7241671085357666,1.1769846677780151
1772883680678191400,2.05919140625,-0.12980885803699493,-1.8987219333648682,1.0989465713500977
1772883680694777300,2.07577734375,-0.308792382478714,-2.0056233406066895,0.7664831876754761
1772883680711395800,2.092395751953125,-0.4173736870288849,-2.0311269760131836,0.4202753007411957
1772883680727987000,2.108987060546875,-0.4833471179008484,-1.8545868396759033,0.24144448339939117
1772883680744585500,2.12558544921875,-0.5083925724029541,-1.4256067276000977,0.20097467303276062
1772883680761198600,2.142198486328125,-0.4590652287006378,-0.7979426980018616,0.1875356286764145
1772883680777804000,2.158803955078125,-0.35185837745666504,-0.09743300825357437,0.08078692853450775
1772883680794411000,2.175410888671875,-0.27122417092323303,0.3208569586277008,-0.08384125679731369
1772883680811014000,2.192013916015625,-0.24663683772087097,0.4764748811721802,-0.2002110779285431
1772883680827620600,2.20862060546875,-0.23228150606155396,0.48090365529060364,-0.2880229651927948
1772883680844226000,2.22522607421875,-0.22815817594528198,0.34636059403419495,-0.35216382145881653
1772883680860842500,2.241842529296875,-0.2477058619260788,0.14309518039226532,-0.38347065448760986
1772883680877445400,2.2584453125,-0.27748554944992065,-0.010995574295520782,-0.41370847821235657
1772883680894053600,2.2750537109375,-0.28725937008857727,-0.0754418596625328,-0.4709770977497101
1772883680910643200,2.291643310546875,-0.2635883390903473,0.016340645030140877,-0.49128836393356323
1772883680927264800,2.3082646484375,-0.21868975460529327,0.17150041460990906,-0.4356996417045593
1772883680943857200,2.324857177734375,-0.16279558837413788,0.3423899710178375,-0.3491095006465912
1772883680960472600,2.34147265625,-0.10705413669347763,0.41599923372268677,-0.3188716471195221
1772883680977085700,2.358085693359375,-0.010537425056099892,0.4482223689556122,-0.37079519033432007
1772883680993683500,2.374683349609375,0.11621711403131485,0.3419318199157715,-0.4300491213798523
1772883681010290000,2.3912900390625,0.25503623485565186,0.14676037430763245,-0.4453207552433014
1772883681026896600,2.407896728515625,0.35674530267715454,-0.09483683109283447,-0.4063780903816223
1772883681043494100,2.424494140625,0.4092797040939331,-0.2776382565498352,-0.2788599729537964
1772883681060110000,2.441110107421875,0.48258355259895325,-0.24617868661880493,-0.0884227454662323
1772883681076711200,2.457711181640625,0.5914703011512756,-0.0832303911447525,0.05711590126156807
1772883681093315300,2.4743154296875,0.6792821288108826,0.05375614017248154,0.08964447677135468
1772883681109921800,2.490921875,0.7102835774421692,0.14935655891895294,-0.003054326167330146
1772883681126527500,2.507527587890625,0.7133378982543945,0.13148874044418335,-0.11285735666751862
1772883681143115300,2.524115234375,0.6834055185317993,0.00931569468230009,-0.06933320313692093
1772883681159736300,2.540736328125,0.6155994534492493,-0.11988230794668198,0.16111570596694946
1772883681176341800,2.557341796875,0.5309945940971375,-0.13515393435955048,0.46471574902534485
1772883681192947000,2.573947021484375,0.48456886410713196,-0.019394971430301666,0.6882924437522888
1772883681209534200,2.5905341796875,0.5032002329826355,0.1869247704744339,0.806647539138794
1772883681226139400,2.607139404296875,0.5792529582977295,0.4665483236312866,0.912021815776825
1772883681242736000,2.623736083984375,0.6731734871864319,0.7319692969322205,0.9636399149894714
1772883681259354000,2.64035400390625,0.7571674585342407,0.8588765263557434,0.9158397316932678
1772883681275957200,2.656957275390625,0.7925976514816284,0.7738135457038879,0.759916365146637
1772883681292564700,2.673564697265625,0.7617489695549011,0.5067127346992493,0.5522221922874451
1772883681309169200,2.690169189453125,0.6856962442398071,0.19486601650714874,0.36789360642433167
1772883681325764000,2.70676416015625,0.5951354503631592,-0.05146539583802223,0.22052235901355743
1772883681342380300,2.72338037109375,0.513126790523529,-0.19578230381011963,0.09682214260101318
1772883681359004000,2.74000390625,0.44089198112487793,-0.1794416606426239,0.010842857882380486
1772883681375596500,2.756596435546875,0.41493022441864014,-0.014966198243200779,-0.06963863968849182
1772883681392207000,2.77320703125,0.4550946056842804,0.2015855312347412,-0.18845193088054657
1772883681408813000,2.78981298828125,0.5719226002693176,0.4337143301963806,-0.30695977807044983
1772883681425417700,2.806417724609375,0.6959282159805298,0.6131559610366821,-0.3240640163421631
1772883681442007000,2.823007080078125,0.7864890098571777,0.703411340713501,-0.2577851414680481
1772883681458628400,2.83962841796875,0.8625417351722717,0.7063129544258118,-0.15577064454555511
1772883681475228200,2.856228271484375,0.9071348905563354,0.5893322229385376,-0.09789115190505981
1772883681491842800,2.8728427734375,0.903164267539978,0.3727805018424988,-0.12797626852989197
1772883681508419000,2.889419189453125,0.840397834777832,0.09147707372903824,-0.20662516355514526
1772883681525048600,2.906048583984375,0.7163922190666199,-0.16203200817108154,-0.2730567753314972
1772883681541639400,2.922639404296875,0.6035348773002625,-0.230448916554451,-0.2984076738357544
1772883681558258700,2.9392587890625,0.5189300179481506,-0.156686931848526,-0.2837468981742859
1772883681574866400,2.955866455078125,0.4512766897678375,0.02122756652534008,-0.182648703455925
1772883681591467800,2.9724677734375,0.3982841372489929,0.21273382008075714,-0.03420845419168472
1772883681608083200,2.989083251953125,0.3712533414363861,0.3378084897994995,0.09010262042284012
1772883681624678400,3.005678466796875,0.3497203588485718,0.3407101035118103,0.10277807712554932
1772883681641277400,3.02227734375,0.28817567229270935,0.23487769067287445,0.008857546374201775
1772883681657891000,3.03889111328125,0.14828753471374512,0.01038470957428217,-0.11957687139511108
1772883681674494000,3.055493896484375,-0.0708603709936142,-0.2194533348083496,-0.19333885610103607
1772883681691102000,3.07210205078125,-0.32879820466041565,-0.35659259557724,-0.16798794269561768
1772883681707691000,3.08869091796875,-0.551305890083313,-0.43768495321273804,-0.08414668589830399
1772883681724298000,3.105298095703125,-0.6937901973724365,-0.4008803069591522,-0.02275473065674305
1772883681740889600,3.1218896484375,-0.7313584089279175,-0.2525927722454071,0.04902193695306778
1772883681757507800,3.1385078125,-0.6687447428703308,-0.08857546001672745,0.13698652386665344
1772883681774105300,3.155105224609375,-0.570242702960968,0.040164388716220856,0.16325373947620392
1772883681790717000,3.171717041015625,-0.5441282391548157,0.09117163717746735,0.09056077152490616
1772883681807310300,3.188310302734375,-0.6420193910598755,0.02168571576476097,-0.06200282275676727
1772883681823931600,3.204931640625,-0.8107708692550659,-0.02474004216492176,-0.21120665967464447
1772883681840519700,3.221519775390625,-0.979827880859375,0.012980886735022068,-0.31841349601745605
1772883681857152500,3.238152587890625,-1.0627528429031372,0.16951510310173035,-0.347276896238327
1772883681873757400,3.25475732421875,-1.01617431640625,0.3901901841163635,-0.2889392673969269
1772883681890363100,3.271363037109375,-0.8281805515289307,0.6067419052124023,-0.13026700913906097
1772883681906952200,3.2879521484375,-0.5546656250953674,0.7626652717590332,0.07162395119667053
1772883681923572700,3.30457275390625,-0.2942843437194824,0.8275696635246277,0.256868839263916
1772883681940196600,3.321196533203125,-0.10033461451530457,0.6983717083930969,0.33948835730552673
1772883681956774700,3.337774658203125,0.04612032696604729,0.34697145223617554,0.33918291330337524
1772883681973376300,3.354376220703125,0.17256943881511688,-0.06872233748435974,0.3700316250324249
1772883681989977000,3.37097705078125,0.28527405858039856,-0.4738787114620209,0.4579962193965912
1772883682006569000,3.38756884765625,0.3335324227809906,-0.8701775670051575,0.5436700582504272
1772883682023203300,3.404203369140625,0.2574796974658966,-1.2467759847640991,0.5082398653030396
1772883682039788500,3.42078857421875,0.05757404863834381,-1.5416711568832397,0.31230485439300537
1772883682056414700,3.437414794921875,-0.19486601650714874,-1.62047278881073,0.10735956579446793
1772883682073014500,3.4540146484375,-0.3998112976551056,-1.3228286504745483,0.010231993161141872
1772883682089628200,3.470628173828125,-0.4812090992927551,-0.7121161818504333,-0.005955935921519995
1772883682106212600,3.487212646484375,-0.42562034726142883,-0.055894169956445694,-0.02229658141732216
1772883682122834400,3.50383447265625,-0.2796235680580139,0.455705463886261,-0.06872233748435974
1772883682139439000,3.520439208984375,-0.16035212576389313,0.6461427211761475,-0.11652254313230515
1772883682156045300,3.53704541015625,-0.07757988572120667,0.6203336715698242,-0.11362093687057495
1772883682172649500,3.5536494140625,-0.03176499158143997,0.4303545653820038,-0.11881329119205475
1772883682189255000,3.5702548828125,-0.02580905705690384,0.1411098688840866,-0.11636982858181
1772883682205842700,3.5868427734375,-0.042760565876960754,-0.09941831976175308,-0.11163562536239624
1772883682222451500,3.603451416015625,-0.07406741380691528,-0.28955012559890747,-0.17562375962734222
1772883682239047400,3.62004736328125,-0.09224065393209457,-0.365755558013916,-0.21105393767356873
1772883682255658000,3.636657958984375,-0.10430523753166199,-0.32498031854629517,-0.22327125072479248
1772883682272271000,3.65327099609375,-0.1108720451593399,-0.24297164380550385,-0.19776763021945953
1772883682288872000,3.669871826171875,-0.12553280591964722,-0.15225815773010254,-0.1310305893421173
1772883682305477000,3.68647705078125,-0.1281289905309677,-0.03344487398862839,-0.096211276948452
1772883682322099500,3.703099365234375,-0.12064588814973831,0.03237585723400116,-0.12003502249717712
1772883682338698000,3.719697998046875,-0.10766500234603882,0.051770828664302826,-0.1638645976781845
1772883682355306200,3.73630615234375,-0.09865473955869675,0.005497787147760391,-0.2025018334388733
1772883682371911000,3.752910888671875,-0.10048733651638031,-0.07009678333997726,-0.17837265133857727
1772883682388516600,3.7695166015625,-0.10094548016786575,-0.1388191282749176,-0.13316862285137177
1772883682405105000,3.78610498046875,-0.08032877743244171,-0.23411411046981812,-0.09300423413515091
1772883682421746000,3.802745849609375,-0.027947084978222847,-0.3381139039993286,0.0010690141934901476
1772883682438319600,3.819319580078125,0.06017022579908371,-0.34376442432403564,0.17867808043956757
1772883682454937300,3.835937255859375,0.19975294172763824,-0.20234911143779755,0.42042800784111023
1772883682471541800,3.852541748046875,0.3208569586277008,-0.08918632566928864,0.5890268087387085
1772883682488147000,3.86914697265625,0.3556762933731079,-0.18600846827030182,0.637132465839386
1772883682504736000,3.885736083984375,0.33505958318710327,-0.3937026560306549,0.6885978579521179
1772883682521339400,3.90233935546875,0.294437050819397,-0.6363688707351685,0.6611089110374451
1772883682537955000,3.918955078125,0.23457226157188416,-0.8171849846839905,0.5542075037956238
1772883682554568000,3.93556787109375,0.17669276893138885,-0.7695375084877014,0.4411974251270294
1772883682571161900,3.952161865234375,0.1394299864768982,-0.5752823352813721,0.39248090982437134
1772883682587778000,3.968778076171875,0.13927727937698364,-0.29138273000717163,0.43707409501075745
1772883682604408800,3.985408935546875,0.19318613409996033,0.07024950534105301,0.5396994352340698
1772883682620971800,4.0019716796875,0.2912299931049347,0.437226802110672,0.6623306274414062
1772883682637576700,4.01857666015625,0.3900374472141266,0.6487388610839844,0.7021896243095398
1772883682654202400,4.035202392578125,0.46563202142715454,0.6435465216636658,0.6316346526145935
1772883682670792200,4.051792236328125,0.5146539807319641,0.5426010489463806,0.5390886068344116
1772883682687388000,4.068387939453125,0.5462662577629089,0.3988949954509735,0.4346306324005127
1772883682704004000,4.085004150390625,0.5583308339118958,0.2591595947742462,0.28649580478668213
1772883682720605700,4.101605712890625,0.5529857873916626,0.13454307615756989,0.10720685124397278
1772883682737222700,4.11822265625,0.5201517343521118,0.07819075137376785,-0.0555887371301651
1772883682753816000,4.134816162109375,0.4786129295825958,0.09498954564332962,-0.18280142545700073
1772883682770420700,4.151420654296875,0.46639561653137207,0.20723603665828705,-0.2611449062824249
1772883682787026200,4.168026123046875,0.4999932050704956,0.3390302062034607,-0.34208452701568604
1772883682803630600,4.184630615234375,0.5616905689239502,0.4538728892803192,-0.4056145250797272
1772883682820236800,4.20123681640625,0.6351471543312073,0.521984338760376,-0.4219551682472229
1772883682836855000,4.21785498046875,0.7154759168624878,0.485027015209198,-0.42730024456977844
1772883682853460500,4.23446044921875,0.7666358947753906,0.33368512988090515,-0.4112650156021118
1772883682870065200,4.251065185546875,0.7657195925712585,0.15760323405265808,-0.35323283076286316
1772883682886670000,4.267670166015625,0.7250970602035522,0.014966198243200779,-0.30863967537879944
1772883682903272400,4.2842724609375,0.679740309715271,-0.0754418596625328,-0.27809640765190125
1772883682919883800,4.3008837890625,0.6227771043777466,-0.08750644326210022,-0.2675589919090271
1772883682936486000,4.31748583984375,0.5461135506629944,-0.02367102913558483,-0.2292271852493286
1772883682953090600,4.334090576171875,0.4509712755680084,0.11178833991289139,-0.13454307615756989
1772883682969679600,4.3506796875,0.35262197256088257,0.24159720540046692,-0.04612032696604729
1772883682986301200,4.36730126953125,0.260992169380188,0.30741792917251587,0.029016099870204926
1772883683002919200,4.383919189453125,0.18875735998153687,0.3075706362724304,0.07360926270484924
1772883683019495000,4.400494873046875,0.13805554807186127,0.2698497176170349,0.11453723162412643
1772883683036099600,4.417099609375,0.06200282275676727,0.19532416760921478,0.14538592100143433
1772883683052722200,4.43372216796875,-0.04046982154250145,0.07910704612731934,0.15012013912200928
1772883683069310200,4.450310302734375,-0.13255776464939117,-0.06230825558304787,0.14263702929019928
1772883683085931800,4.466931884765625,-0.19593502581119537,-0.10231992602348328,0.13301590085029602
1772883683102520300,4.483520263671875,-0.2831360399723053,-0.08017606288194656,0.10659598559141159
1772883683119148000,4.50014794921875,-0.40653082728385925,-0.03955352306365967,0.050854530185461044
1772883683135753700,4.516753662109375,-0.5377141237258911,-0.012675453908741474,-0.0074830991216003895
1772883683152358400,4.5333583984375,-0.6255260109901428,0.044135015457868576,-0.013744467869400978
1772883683168956000,4.549955810546875,-0.6374378800392151,0.11071932315826416,0.04306599870324135
1772883683185545700,4.566545654296875,-0.5951354503631592,0.1840231567621231,0.07987063378095627
1772883683202154000,4.583154052734375,-0.545655369758606,0.2535090744495392,0.07269296050071716
1772883683218759200,4.59975927734375,-0.5328271985054016,0.251676470041275,0.07238753139972687
1772883683235364600,4.616364501953125,-0.5403103232383728,0.08689557760953903,0.05345070734620094
1772883683251970000,4.632969970703125,-0.5145012736320496,-0.17073683440685272,0.009010262787342072
1772883683268574500,4.649574462890625,-0.5036584138870239,-0.3827070891857147,-0.12889257073402405
1772883683285179600,4.6661796875,-0.5436700582504272,-0.4911356568336487,-0.394008070230484
1772883683301781200,4.68278125,-0.622013509273529,-0.4586070775985718,-0.6067419052124023
1772883683318407700,4.69940771484375,-0.6924157738685608,-0.21762074530124664,-0.5983424782752991
1772883683335005000,4.7160048828125,-0.6676757335662842,0.07849618047475815,-0.3917173445224762
1772883683351618000,4.7326181640625,-0.5464189648628235,0.26939156651496887,-0.1466076523065567
1772883683368219000,4.749218994140625,-0.38469240069389343,0.31871894001960754,0.01237002108246088
1772883683384820200,4.7658203125,-0.23884831368923187,0.2301434874534607,0.13637566566467285
1772883683401434400,4.782434326171875,-0.13011430203914642,0.021838432177901268,0.24663683772087097
1772883683418034700,4.79903466796875,-0.09040805697441101,-0.22281309962272644,0.2880229651927948
1772883683434646000,4.81564599609375,-0.11713340878486633,-0.3543018400669098,0.2301434874534607
1772883683451224800,4.832224853515625,-0.1719585657119751,-0.35842517018318176,0.1362229436635971
1772883683467849500,4.848849365234375,-0.2382374405860901,-0.3222314119338989,0.024587325751781464
1772883683484455000,4.865454833984375,-0.31459560990333557,-0.242513507604599,-0.11148291081190109
1772883683501060000,4.88206005859375,-0.3686571717262268,-0.10216721147298813,-0.28557950258255005
1772883683517672200,4.898672119140625,-0.3917173445224762,0.06612616032361984,-0.5112941861152649
1772883683534259500,4.915259521484375,-0.41920626163482666,0.1921171247959137,-0.6855435371398926
1772883683550863400,4.93186328125,-0.40973785519599915,0.3199406862258911,-0.6531676650047302
1772883683567480300,4.948480224609375,-0.30375275015830994,0.45402559638023376,-0.4876231849193573
1772883683584086000,4.9650859375,-0.17516560852527618,0.44547349214553833,-0.37461310625076294
1772883683600662300,4.981662353515625,-0.09392052888870239,0.30054569244384766,-0.35735616087913513
1772883683617294300,4.99829443359375,-0.07727445662021637,0.06414084881544113,-0.3871358633041382
1772883683633906200,5.01490625,-0.06963863968849182,-0.11774427443742752,-0.38759398460388184
1772883683650504000,5.03150390625,-0.06276640295982361,-0.20861047506332397,-0.38576140999794006
1772883683667094000,5.048093994140625,-0.05619960278272629,-0.20754146575927734,-0.3724750876426697
1772883683683703000,5.064703125,-0.04993823543190956,-0.15256360173225403,-0.28848111629486084
1772883683700297200,5.081297119140625,-0.06551529467105865,-0.05421429127454758,-0.1586722433567047
1772883683716913700,5.09791357421875,-0.08781187981367111,-0.00366519158706069,-0.07635815441608429
1772883683733518000,5.11451806640625,-0.08735372871160507,0.01237002108246088,-0.04657847434282303
1772883683750123500,5.13112353515625,-0.07009678333997726,-0.014966198243200779,-0.05314527451992035
1772883683766728700,5.147728759765625,-0.06169738993048668,-0.1212567538022995,-0.05864306539297104
1772883683783334000,5.164333984375,-0.05696318298578262,-0.1241583600640297,-0.029932396486401558
1772883683799939600,5.180939697265625,-0.04138612002134323,-0.05910121276974678,0.03222314268350601
1772883683816557600,5.1975576171875,-0.010079276748001575,-0.013591751456260681,0.0835358202457428
1772883683833159000,5.214158935546875,0.023365596309304237,-0.029626963660120964,0.12079860270023346
1772883683849772300,5.230772216796875,0.045204028487205505,-0.1287398487329483,0.12767083942890167
1772883683866372600,5.24737255859375,0.043676864355802536,-0.24923302233219147,0.12522737681865692
1772883683883000800,5.264000732421875,0.03634648025035858,-0.3179553747177124,0.15195272862911224
1772883683899568600,5.280568603515625,0.04581489413976669,-0.235030397772789,0.2021963894367218
1772883683916188700,5.297188720703125,0.07284568250179291,-0.14508049190044403,0.21288654208183289
1772883683932775700,5.313775634765625,0.0780380368232727,-0.08781187981367111,0.16691893339157104
1772883683949400300,5.330400390625,0.044287730008363724,-0.08903361111879349,0.08888089656829834
1772883683966004000,5.34700390625,-0.06872233748435974,-0.28848111629486084,0.043218716979026794
1772883683982609200,5.363609130859375,-0.1817324161529541,-0.5296201705932617,0.06994406878948212
1772883683999237000,5.380237060546875,-0.23457226157188416,-0.5771149396896362,0.1241583600640297
1772883684015819500,5.396819580078125,-0.22937989234924316,-0.3836233615875244,0.1408044397830963
1772883684032425000,5.413425048828125,-0.16371189057826996,-0.11026117950677872,0.18081611394882202
1772883684049029000,5.430029052734375,-0.03375030308961868,0.2041817009449005,0.3066543638706207
1772883684065653500,5.446653564453125,0.1359175145626068,0.5830708742141724,0.4560109078884125
1772883684082239500,5.463239501953125,0.308792382478714,0.8628471493721008,0.5083925724029541
1772883684098829000,5.4798291015625,0.44654250144958496,0.8187121152877808,0.46181413531303406
1772883684115450400,5.496450439453125,0.504574716091156,0.48456886410713196,0.3842342495918274
1772883684132055600,5.5130556640625,0.4769330322742462,0.08078692853450775,0.3381139039993286
1772883684148659700,5.52965966796875,0.4534147381782532,-0.19165897369384766,0.34773504734039307
1772883684165248500,5.54624853515625,0.4593706727027893,-0.30695977807044983,0.36300668120384216
1772883684181857000,5.56285693359375,0.4680754840373993,-0.33735033869743347,0.2935207486152649
1772883684198451000,5.579450927734375,0.4567744731903076,-0.28985556960105896,0.13958270847797394
1772883684215067100,5.596067138671875,0.4265366494655609,-0.17806722223758698,-0.07116580009460449
1772883684231672300,5.61267236328125,0.38576140999794006,-0.0887281745672226,-0.242513507604599
1772883684248277500,5.629277587890625,0.3399465084075928,-0.02076941914856434,-0.3139847218990326
1772883684264882200,5.645882080078125,0.31459560990333557,0.0029016099870204926,-0.29107728600502014
1772883684281487600,5.662487548828125,0.3168863356113434,0.031001411378383636,-0.22250767052173615
1772883684298102800,5.679102783203125,0.34086281061172485,0.09926560521125793,-0.19257527589797974
1772883684314681900,5.695681884765625,0.36331209540367126,0.11468994617462158,-0.21181751787662506
1772883684331302700,5.712302734375,0.3698789179325104,0.009926560334861279,-0.24862214922904968
1772883684347908400,5.728908447265625,0.3390302062034607,-0.14676037430763245,-0.2382374405860901
1772883684364513300,5.74551318359375,0.28985556960105896,-0.23655757308006287,-0.15454891324043274
1772883684381118500,5.762118408203125,0.2796235680580139,-0.2025018334388733,-0.03588833287358284
1772883684397711600,5.778711669921875,0.31520646810531616,-0.062460970133543015,0.08903361111879349
1772883684414328800,5.795328857421875,0.3604104816913605,0.12049316614866257,0.20005837082862854
1772883684430943700,5.81194384765625,0.3698789179325104,0.24190263450145721,0.26740625500679016
1772883684447556900,5.828556884765625,0.328340083360672,0.28557950258255005,0.3202461004257202
1772883684464142800,5.845142822265625,0.25931230187416077,0.26221391558647156,0.34605515003204346
1772883684480763000,5.861762939453125,0.1618792861700058,0.10735956579446793,0.3727805018424988
1772883684497356000,5.87835595703125,0.020922135561704636,-0.06490442901849747,0.4167627990245819
1772883684513973800,5.894973876953125,-0.12446379661560059,-0.17119498550891876,0.3995058834552765
1772883684530579200,5.9115791015625,-0.26221391558647156,-0.2782491147518158,0.3113885521888733
1772883684547182000,5.92818212890625,-0.4153883755207062,-0.3623957931995392,0.18784105777740479
1772883684563774000,5.94477392578125,-0.547182559967041,-0.3930917978286743,0.08048149943351746
1772883684580393500,5.9613935546875,-0.6537785530090332,-0.3399465084075928,0.03451388701796532
1772883684596996900,5.977996826171875,-0.7235698699951172,-0.18005253374576569,0.033139441162347794
1772883684613604400,5.994604248046875,-0.7331910133361816,-0.0032070425804704428,-0.016951510682702065
1772883684630205000,6.011204833984375,-0.7330383062362671,0.030695978552103043,-0.2102903574705124
1772883684646801700,6.0278017578125,-0.7715228199958801,-0.09529497474431992,-0.48197266459465027
1772883684663405300,6.0444052734375,-0.8338310718536377,-0.22342395782470703,-0.6359107494354248
1772883684680010500,6.061010498046875,-0.8684976696968079,-0.15653422474861145,-0.5867360830307007
1772883684696596500,6.077596435546875,-0.8304712772369385,0.02825251780450344,-0.4766276180744171
1772883684713221000,6.09422119140625,-0.7053966522216797,0.27320948243141174,-0.35445454716682434
1772883684729826000,6.110825927734375,-0.5093088746070862,0.5650503635406494,-0.17669276893138885
1772883684746431200,6.12743115234375,-0.29306259751319885,0.8054258227348328,-0.041233405470848083
1772883684763036400,6.144036376953125,-0.14477506279945374,0.8231409192085266,0.015882495790719986
1772883684779641600,6.1606416015625,-0.09117163717746735,0.5426010489463806,0.10002918541431427
1772883684796233500,6.1772333984375,-0.10399980843067169,0.02687807008624077,0.2733621895313263
1772883684812865300,6.193865234375,-0.14584407210350037,-0.36590829491615295,0.4375322461128235
1772883684829471200,6.21047119140625,-0.22311852872371674,-0.5181664228439331,0.4662429094314575
1772883684846080000,6.227080078125,-0.3162754774093628,-0.5865833759307861,0.37048977613449097
1772883684862676200,6.24367626953125,-0.40591996908187866,-0.6049093008041382,0.20066922903060913
1772883684879281700,6.26028173828125,-0.46211954951286316,-0.48869219422340393,0.018020525574684143
1772883684895879700,6.276879638671875,-0.49296826124191284,-0.14126259088516235,-0.09269879758358002
1772883684912496400,6.293496337890625,-0.4859432876110077,0.27382034063339233,-0.09972374886274338
1772883684929102800,6.310102783203125,-0.43829581141471863,0.5419901609420776,-0.046273041516542435
1772883684945704400,6.326704345703125,-0.39187005162239075,0.6130032539367676,0.02871066704392433
1772883684962306800,6.343306884765625,-0.3579670190811157,0.4925101101398468,0.09376781433820724
1772883684978916900,6.359916748046875,-0.3045163154602051,0.24419337511062622,0.10277807712554932
1772883684995523800,6.37652392578125,-0.22372940182685852,-0.05390885844826698,0.08307767659425735
1772883685012127000,6.393126953125,-0.14294247329235077,-0.27458393573760986,0.07299839705228806
1772883685028729600,6.4097294921875,-0.09086620807647705,-0.3724750876426697,0.06215553730726242
1772883685045339600,6.426339599609375,-0.08429940044879913,-0.35873061418533325,0.02168571576476097
1772883685061946000,6.442946044921875,-0.11056660860776901,-0.22372940182685852,-0.022449297830462456
1772883685078547500,6.45954736328125,-0.1238529309630394,-0.03878994286060333,-0.08170322328805923
1772883685095152400,6.47615234375,-0.11881329119205475,0.0507018156349659,-0.13866640627384186
1772883685111758300,6.49275830078125,-0.10949759185314178,0.1111774742603302,-0.11698069423437119
1772883685128362200,6.5093623046875,-0.07635815441608429,0.14996741712093353,-0.041691552847623825
1772883685144951300,6.525951416015625,-0.04657847434282303,0.14095716178417206,0.009926560334861279
1772883685178151200,6.559151123046875,-0.0503963828086853,-0.017562376335263252,-0.023976460099220276
1772883685194753000,6.5757529296875,-0.01863138936460018,-0.04337143152952194,0.005497787147760391
1772883685211374600,6.59237451171875,0.033597588539123535,-0.06352998316287994,0.009468411095440388
1772883685227978200,6.608978271484375,0.07757988572120667,-0.07009678333997726,-0.0503963828086853
1772883685244582400,6.62558251953125,0.10308351367712021,-0.09269879758358002,-0.12492194026708603
1772883685261190000,6.64218994140625,0.1368338167667389,-0.07208210229873657,-0.1088867336511612
1772883685277791700,6.658791748046875,0.1788308024406433,-0.11270463466644287,-0.014508049935102463
1772883685294407200,6.6754072265625,0.22281309962272644,-0.14508049190044403,0.10842858254909515
1772883685311019300,6.692019287109375,0.24327708780765533,-0.11774427443742752,0.1560760736465454
1772883685327617000,6.708616943359375,0.22800545394420624,-0.17821992933750153,0.06520986557006836
1772883685344236500,6.725236572265625,0.19028452038764954,-0.3300199508666992,-0.13286319375038147
1772883685360818200,6.741818115234375,0.1241583600640297,-0.45265114307403564,-0.3400992155075073
1772883685377442000,6.758442138671875,0.036651913076639175,-0.4495968222618103,-0.4355469346046448
1772883685394061300,6.775061279296875,-0.029016099870204926,-0.32268956303596497,-0.34544429183006287
1772883685410633200,6.79163330078125,-0.024587325751781464,-0.021838432177901268,-0.10766500234603882
1772883685427251200,6.808251220703125,0.09544769674539566,0.3219259977340698,0.15317445993423462
1772883685443864600,6.824864501953125,0.28130343556404114,0.5612324476242065,0.3197879493236542
1772883685460448800,6.84144873046875,0.43615779280662537,0.5949827432632446,0.3628539443016052
1772883685477050000,6.858050048828125,0.5192354321479797,0.3943135142326355,0.3219259977340698
1772883685493677300,6.87467724609375,0.5325217843055725,0.10812314599752426,0.29917123913764954
1772883685510281200,6.89128125,0.5426010489463806,-0.025656340643763542,0.3225368559360504
1772883685526865400,6.907865478515625,0.5581781268119812,-0.02428189292550087,0.35353827476501465
1772883685543494700,6.92449462890625,0.53328537940979,-0.09575312584638596,0.3023782968521118
1772883685560082400,6.94108251953125,0.4662429094314575,-0.2255619913339615,0.16661348938941956
1772883685576713500,6.95771337890625,0.38667771220207214,-0.370947927236557,-0.04245513305068016
1772883685593290200,6.974290283203125,0.3055853247642517,-0.44364088773727417,-0.19898934662342072
1772883685609911600,6.99091162109375,0.22892175614833832,-0.3631593883037567,-0.24617868661880493
1772883685626486500,7.007486572265625,0.18799377977848053,-0.18066339194774628,-0.17256943881511688
1772883685643111400,7.024111328125,0.22968533635139465,0.08506298810243607,-0.010995574295520782
1772883685659713800,7.0407138671875,0.32360586524009705,0.23029619455337524,0.12034045159816742
1772883685676319500,7.057319580078125,0.3975205719470978,0.2252565622329712,0.1612684279680252
1772883685692910300,7.073910400390625,0.4334088861942291,0.17409659922122955,0.1488984078168869
1772883685709524500,7.0905244140625,0.43279802799224854,0.13041973114013672,0.156686931848526
1772883685726137000,7.10713720703125,0.4138612151145935,0.19883663952350616,0.22327125072479248
1772883685742739700,7.12373974609375,0.34987306594848633,0.28435778617858887,0.2681698501110077
1772883685759343900,7.14034375,0.2742784917354584,0.3683517575263977,0.24785856902599335
1772883685775949600,7.156949462890625,0.20097467303276062,0.4086688458919525,0.20128010213375092
1772883685792588500,7.173588623046875,0.13576480746269226,0.38377609848976135,0.17379115521907806
1772883685809177000,7.190177001953125,0.1062905490398407,0.34208452701568604,0.17272214591503143
1772883685825767200,7.20676708984375,0.08368854224681854,0.2977968156337738,0.19074267148971558
1772883685842387000,7.223386962890625,0.03955352306365967,0.13958270847797394,0.18539759516716003
1772883685858974700,7.239974609375,-0.03497203439474106,-0.03894266113638878,0.18799377977848053
1772883685875586000,7.2565859375,-0.10384709388017654,-0.13255776464939117,0.2047925740480423
1772883685892206800,7.273206787109375,-0.18784105777740479,-0.20830504596233368,0.168751522898674
1772883685908804000,7.28980419921875,-0.2834414839744568,-0.24602597951889038,0.07299839705228806
1772883685925400800,7.30640087890625,-0.36713001132011414,-0.2698497176170349,-0.04917465150356293
1772883685942022100,7.323022216796875,-0.44776421785354614,-0.2848159074783325,-0.126143679022789
1772883685958609200,7.339609130859375,-0.512210488319397,-0.3260493278503418,-0.14996741712093353
1772883685975225000,7.35622509765625,-0.5575672388076782,-0.418748140335083,-0.07376197725534439
1772883685991829200,7.372829345703125,-0.5490151643753052,-0.4222606122493744,0.07864890247583389
1772883686008418000,7.38941796875,-0.46761733293533325,-0.2638937830924988,0.18524488806724548
1772883686025035300,7.40603515625,-0.38728857040405273,0.009468411095440388,0.13439035415649414
1772883686041649700,7.422649658203125,-0.38698312640190125,0.1267545372247696,-0.08307767659425735
1772883686058249500,7.43924951171875,-0.4602869749069214,0.006261368747800589,-0.3208569586277008
1772883686074855400,7.45585546875,-0.5836817622184753,-0.16630806028842926,-0.46563202142715454
1772883686091452000,7.472451904296875,-0.6551529765129089,-0.08949175477027893,-0.4879286289215088
1772883686108073700,7.48907373046875,-0.6446155309677124,0.10354165732860565,-0.44226643443107605
1772883686124652800,7.50565283203125,-0.5517640113830566,0.37568211555480957,-0.32498031854629517
1772883686141262300,7.522262451171875,-0.3903428912162781,0.5783366560935974,-0.20066922903060913
1772883686157867000,7.538866943359375,-0.2200642079114914,0.5859724879264832,-0.03894266113638878
1772883686174472400,7.555472412109375,-0.06291911751031876,0.4184426963329315,0.18906278908252716
1772883686191077000,7.5720771484375,0.06841690838336945,0.12140946835279465,0.42439863085746765
1772883686207682600,7.5886826171875,0.11621711403131485,-0.24984388053417206,0.5349652171134949
1772883686224284400,7.605284423828125,0.04703662544488907,-0.5403103232383728,0.4990769028663635
1772883686240896000,7.62189599609375,-0.07727445662021637,-0.6407976150512695,0.3680463135242462
1772883686257497600,7.63849755859375,-0.2002110779285431,-0.6866125464439392,0.14095716178417206
1772883686274103000,7.65510302734375,-0.32757648825645447,-0.737772524356842,-0.09315694868564606
1772883686290721000,7.671720947265625,-0.44516804814338684,-0.6669121384620667,-0.2370157092809677
1772883686307331300,7.688331298828125,-0.5280929803848267,-0.4053090810775757,-0.2718350291252136
1772883686323932200,7.70493212890625,-0.5444336533546448,-0.0007635815418325365,-0.21120665967464447
1772883686340537000,7.721537109375,-0.45173484086990356,0.35934147238731384,-0.14798210561275482
1772883686357128000,7.7381279296875,-0.3208569586277008,0.560468852519989,-0.09193521738052368
1772883686373747700,7.754747802734375,-0.2382374405860901,0.5736024379730225,-0.07131851464509964
1772883686390372600,7.77137255859375,-0.20036379992961884,0.3799581825733185,-0.052381694316864014
1772883686406962200,7.787962158203125,-0.13958270847797394,0.03451388701796532,0.007941247895359993
1772883686423559700,7.8045595703125,-0.01710422709584236,-0.17730364203453064,0.13072516024112701
1772883686440171300,7.821171142578125,0.07177666574716568,-0.2503020465373993,0.21365012228488922
1772883686456772400,7.8377724609375,0.09743300825357437,-0.25595253705978394,0.2177734673023224
1772883686473378000,7.8543779296875,0.08475755155086517,-0.16065755486488342,0.15241087973117828
1772883686489963300,7.87096337890625,0.06276640295982361,0.016035212203860283,0.05345070734620094
1772883686506593300,7.88759326171875,0.04856378585100174,0.19196440279483795,-0.01114829070866108
1772883686523192800,7.90419287109375,0.029168816283345222,0.3029891550540924,0
1772883686539799300,7.92079931640625,0.033139441162347794,0.2811507284641266,0.00809396430850029
1772883686556387000,7.937386962890625,0.06215553730726242,0.1820378452539444,-0.015118914656341076
1772883686573009200,7.954009033203125,0.1082758679986,0.17440202832221985,-0.06200282275676727
1772883686589592800,7.9705927734375,0.1615738570690155,0.21700987219810486,-0.06902777403593063
1772883686606206700,7.987206787109375,0.22815817594528198,0.19517144560813904,-0.03481931984424591
1772883686622811000,8.003810791015624,0.31841349601745605,0.1618792861700058,-0.02580905705690384
1772883686639416000,8.020416015625,0.34636059403419495,0.03878994286060333,-0.05345070734620094
1772883686656016600,8.0370166015625,0.31612277030944824,-0.09010262042284012,-0.028405234217643738
1772883686672622800,8.053622802734376,0.3176499307155609,-0.012064588256180286,0.0659734457731247
1772883686689234400,8.070234375,0.3390302062034607,0.1371392458677292,0.1241583600640297
1772883686705836500,8.08683642578125,0.3101668357849121,0.23976461589336395,0.1492038369178772
1772883686722438000,8.10343798828125,0.26053401827812195,0.39217549562454224,0.15347988903522491
1772883686739049700,8.1200498046875,0.18600846827030182,0.4158465266227722,0.13225232064723969
1772883686755657500,8.136657470703126,0.07177666574716568,0.16920967400074005,0.09926560521125793
1772883686772256800,8.1532568359375,-0.050854530185461044,-0.18325957655906677,-0.01924225501716137
1772883686788858600,8.169858642578125,-0.1085812970995903,-0.23976461589336395,-0.10873401165008545
1772883686805478000,8.186477783203125,-0.10476338863372803,-0.08277224004268646,-0.12767083942890167
1772883686822086000,8.2030859375,-0.02733621932566166,0.10552696883678436,-0.05192354694008827
1772883686838695000,8.21969482421875,0.07727445662021637,0.40882155299186707,0.17699819803237915
1772883686855287000,8.236287109375,0.14828753471374512,0.6973026990890503,0.41599923372268677
1772883686871901200,8.252901123046875,0.22586742043495178,0.8086328506469727,0.5229006409645081
1772883686888506400,8.26950634765625,0.3455969989299774,0.7252497673034668,0.46532660722732544
1772883686905111600,8.286111572265625,0.5071708559989929,0.5146539807319641,0.3300199508666992
1772883686921714700,8.302714599609375,0.6319400668144226,0.2545780837535858,0.192422553896904
1772883686938324500,8.319324462890625,0.7298312783241272,0.27290403842926025,0.15882496535778046
1772883686954910500,8.335910400390626,0.7837401032447815,0.5146539807319641,0.1466076523065567
1772883686971532300,8.3525322265625,0.7089090943336487,0.43279802799224854,0.09407325088977814
1772883686988138000,8.369137939453125,0.5974262356758118,0.15225815773010254,-0.04856378585100174
1772883687004737300,8.3857373046875,0.5152648091316223,-0.30894508957862854,-0.23976461589336395
1772883687021347600,8.40234765625,0.5097670555114746,-0.603687584400177,-0.3917173445224762
1772883687037956600,8.41895654296875,0.6186537742614746,-0.3170390725135803,-0.2664899528026581
1772883687054573300,8.4355732421875,0.7506006956100464,0.42699480056762695,0.0780380368232727
1772883687071162600,8.45216259765625,0.6583600044250488,1.0684033632278442,0.31810808181762695
1772883687087769300,8.468769287109374,0.3962988257408142,0.7735081315040588,0.10522153973579407
1772883687104354800,8.485354736328125,0.33169981837272644,0.23426681756973267,-0.2768746614456177
1772883687120964400,8.50196435546875,0.27290403842926025,-0.12431107461452484,-0.4683809280395508
1772883687137569300,8.5185693359375,0.1563815027475357,-0.6855435371398926,-0.40256020426750183
