time,seconds_elapsed,z,y,x
1772883286269738500,0.196738525390625,1.7720518112182617,-0.41872096061706543,-0.3252258896827698
1772883286286314000,0.21331396484375,1.9118633270263672,-0.8613321781158447,-0.2428329885005951
1772883286302945300,0.2299453125,1.9279594421386719,-1.1475565433502197,-0.07153338193893433
1772883286319532800,0.24653271484375,1.926314353942871,-1.4007434844970703,0.1132194995880127
1772883286336158000,0.263157958984375,1.6662445068359375,-1.4651198387145996,0.19032251834869385
1772883286352752000,0.279752197265625,1.0390291213989258,-1.4646179676055908,0.27415943145751953
1772883286369355800,0.296355712890625,0.37780189514160156,-1.391111135482788,0.3071534037590027
1772883286385956400,0.312956298828125,0.04738044738769531,-1.3720810413360596,0.38000524044036865
1772883286402573600,0.329573486328125,0.17995262145996094,-1.3390499353408813,0.45209813117980957
1772883286419172000,0.346172119140625,0.4182395935058594,-1.310180902481079,0.459877073764801
1772883286435779600,0.362779541015625,0.5217075347900391,-1.2523878812789917,0.5632002949714661
1772883286452383500,0.379383544921875,0.5164327621459961,-1.2378661632537842,0.6569758653640747
1772883286468987000,0.39598681640625,0.3361091613769531,-1.2891894578933716,0.790864109992981
1772883286485591600,0.412591552734375,0.09344863891601562,-1.2978198528289795,0.9766948819160461
1772883286502197000,0.429197021484375,-0.21697711944580078,-1.2534048557281494,1.087640404701233
1772883286518803000,0.445802978515625,-0.3732738494873047,-1.189697027206421,1.1785331964492798
1772883286535409000,0.462408935546875,-0.37464046478271484,-1.2713377475738525,1.1503396034240723
1772883286552016400,0.479016357421875,-0.4344501495361328,-1.449817180633545,0.911681592464447
1772883286568613000,0.495613037109375,-0.5657033920288086,-1.5117400884628296,0.625114917755127
1772883286585224000,0.512223876953125,-0.7065267562866211,-1.451586127281189,0.34723103046417236
1772883286601829400,0.528829345703125,-0.8823108673095703,-1.2637567520141602,0.0918811559677124
1772883286618431000,0.545430908203125,-0.9588489532470703,-0.9500226974487305,0.02999722957611084
1772883286635040300,0.562040283203125,-0.9224138259887695,-0.6705687046051025,0.12699395418167114
1772883286651640300,0.578640380859375,-0.7751703262329102,-0.37648916244506836,0.34616225957870483
1772883286668232400,0.595232421875,-0.48595237731933594,-0.14771747589111328,0.6076017022132874
1772883286684837400,0.61183740234375,-0.30089569091796875,-0.0393524169921875,0.6267914772033691
1772883286701446100,0.628446044921875,-0.2296276092529297,-0.05762529373168945,0.43725061416625977
1772883286718054700,0.6450546875,-0.2230691909790039,-0.0649881362915039,0.2898555397987366
1772883286734655200,0.6616552734375,-0.2750997543334961,-0.01254415512084961,0.24921685457229614
1772883286751261000,0.678260986328125,-0.2495098114013672,0.08473038673400879,0.2577347159385681
1772883286767872800,0.694872802734375,-0.22202587127685547,0.1178133487701416,0.26834821701049805
1772883286784478500,0.711478515625,-0.24714183807373047,0.12368488311767578,0.1827743649482727
1772883286801097500,0.728097412109375,-0.21857070922851562,0.16590189933776855,0.13619083166122437
1772883286817694500,0.744694580078125,-0.24541091918945312,0.14671111106872559,0.10716050863265991
1772883286834299100,0.761299072265625,-0.4253807067871094,0.1857130527496338,0.0005227327346801758
1772883286850904600,0.777904541015625,-0.728428840637207,0.30710911750793457,-0.1557886004447937
1772883286867529700,0.79452978515625,-0.6710939407348633,0.487947940826416,-0.25517940521240234
1772883286884097800,0.811097900390625,-0.25086498260498047,0.6207852363586426,-0.28040194511413574
1772883286900722400,0.827722412109375,0.008885383605957031,0.7294111251831055,-0.25521978735923767
1772883286917324300,0.84432421875,0.003368377685546875,0.8288693428039551,-0.18792808055877686
1772883286933932500,0.8609326171875,-0.06487560272216797,0.7766780853271484,-0.13749396800994873
1772883286950531800,0.87753173828125,0.19337081909179688,0.6233859062194824,-0.20889955759048462
1772883286967147000,0.89414697265625,0.9962196350097656,0.4235982894897461,-0.3664616048336029
1772883286983748600,0.91074853515625,1.652318000793457,0.3337216377258301,-0.6624633073806763
1772883287000344800,0.9273447265625,1.6917905807495117,0.19052410125732422,-0.5694469809532166
1772883287016955100,0.943955078125,1.6190681457519531,0.2009906768798828,-0.4278733432292938
1772883287033561000,0.96056103515625,1.4085865020751953,0.24196290969848633,-0.3736494779586792
1772883287050159400,0.977159423828125,1.0312929153442383,0.24136567115783691,-0.2197883427143097
1772883287066753800,0.99375390625,0.8818063735961914,0.22337794303894043,-0.13692706823349
1772883287083374300,1.010374267578125,1.2310543060302734,-0.06638956069946289,0.05885636806488037
1772883287099986200,1.026986083984375,1.9979286193847656,-0.6748666763305664,0.24486559629440308
1772883287116580900,1.043580810546875,2.577162742614746,-1.347615122795105,0.1961914300918579
1772883287133189000,1.060189208984375,2.8313074111938477,-1.9092073440551758,-0.1383134126663208
1772883287149790200,1.076790283203125,2.5681838989257812,-2.3082385063171387,-0.5452815294265747
1772883287166387000,1.093386962890625,1.4861412048339844,-2.3656365871429443,-0.7272894382476807
1772883287182993400,1.109993408203125,0.14058685302734375,-2.128218650817871,-0.703197717666626
1772883287199596500,1.126596435546875,-0.7209682464599609,-1.8529483079910278,-0.6004117727279663
1772883287216201000,1.143200927734375,-1.0162382125854492,-1.6495264768600464,-0.5186243653297424
1772883287232808700,1.15980859375,-0.9915695190429688,-1.6220216751098633,-0.4830019772052765
1772883287249411000,1.1764111328125,-0.8877277374267578,-1.6912422180175781,-0.4176512658596039
1772883287266037500,1.19303759765625,-0.7862062454223633,-1.7216768264770508,-0.3664547801017761
1772883287282626800,1.209626708984375,-0.5516815185546875,-1.7018966674804688,-0.37081652879714966
1772883287299245800,1.226245849609375,-0.1873931884765625,-1.6724121570587158,-0.446431964635849
1772883287315847000,1.242846923828125,-0.08182144165039062,-1.6845295429229736,-0.5702254772186279
1772883287332450000,1.259449951171875,-0.15016841888427734,-1.7040654420852661,-0.6913920640945435
1772883287349038300,1.276038330078125,-0.18664073944091797,-1.7092375755310059,-0.7734493613243103
1772883287365648400,1.2926484375,-0.061187744140625,-1.5845825672149658,-0.624070405960083
1772883287382252800,1.309252685546875,0.10770320892333984,-1.4804863929748535,-0.5365396738052368
1772883287398856700,1.325856689453125,0.2427225112915039,-1.4565696716308594,-0.5941874980926514
1772883287415459600,1.34245947265625,0.2962074279785156,-1.4392622709274292,-0.6987329125404358
1772883287432078600,1.35907861328125,0.08418846130371094,-1.2860335111618042,-0.6784206628799438
1772883287448684300,1.375684326171875,-0.22692584991455078,-1.0815379619598389,-0.566802442073822
1772883287465296100,1.392296142578125,-0.3768787384033203,-0.8535270690917969,-0.45797261595726013
1772883287481895000,1.40889501953125,-0.49911975860595703,-0.6972968578338623,-0.39169636368751526
1772883287498499800,1.425499755859375,-0.698857307434082,-0.5569605827331543,-0.2890987992286682
1772883287515100000,1.442099853515625,-0.9038629531860352,-0.4249856472015381,-0.23785400390625
1772883287531709200,1.458709228515625,-1.0656003952026367,-0.31051111221313477,-0.29763296246528625
1772883287548315000,1.47531494140625,-1.0697135925292969,-0.11686325073242188,-0.38543349504470825
1772883287564923400,1.49192333984375,-0.6831073760986328,0.08923673629760742,-0.34774041175842285
1772883287581525000,1.50852490234375,-0.2476177215576172,0.20482826232910156,-0.2300633192062378
1772883287598153000,1.525153076171875,0.10618972778320312,0.2811455726623535,-0.05123060941696167
1772883287614737700,1.541737548828125,0.5358686447143555,0.3578176498413086,0.1992385983467102
1772883287631341600,1.558341552734375,0.9889936447143555,0.3929178714752197,0.378030002117157
1772883287647928600,1.574928466796875,1.172358512878418,0.34201645851135254,0.39102983474731445
1772883287664539100,1.5915390625,1.1833105087280273,0.2524299621582031,0.1691785454750061
1772883287681141200,1.608141357421875,1.2081727981567383,0.16792654991149902,-0.02741461992263794
1772883287697754000,1.624754150390625,1.280416488647461,0.08884167671203613,-0.03421515226364136
1772883287714354000,1.64135400390625,1.1584835052490234,-0.03127431869506836,0.097636878490448
1772883287730961400,1.65796142578125,1.0223922729492188,-0.10268640518188477,0.17738544940948486
1772883287747561500,1.6745615234375,0.8752660751342773,-0.12335991859436035,0.06063711643218994
1772883287764187100,1.691187255859375,0.4858522415161133,-0.2561194896697998,-0.12280750274658203
1772883287780777000,1.70777685546875,0.05717277526855469,-0.46620988845825195,-0.341840922832489
1772883287797392400,1.724392333984375,-0.11231422424316406,-0.2582402229309082,-0.5227643847465515
1772883287813999000,1.7409990234375,-0.3840665817260742,-0.08158731460571289,-0.1237688660621643
1772883287830601000,1.75760107421875,-0.7076349258422852,-0.09348940849304199,0.6774868369102478
1772883287847207200,1.774207275390625,-0.4325685501098633,-0.1588125228881836,1.3053271770477295
1772883287863815000,1.79081494140625,0.6020431518554688,-0.7081589698791504,1.5162681341171265
1772883287880416000,1.807416015625,1.4874534606933594,-1.426943063735962,1.2475864887237549
1772883287897023000,1.82402294921875,1.6863327026367188,-2.028975009918213,0.6818804144859314
1772883287913626600,1.840626708984375,1.18853759765625,-2.294544219970703,-0.002232849597930908
1772883287930231800,1.857231689453125,0.33886146545410156,-2.0811402797698975,-0.4063887596130371
1772883287946836000,1.8738359375,-0.6618108749389648,-1.6380417346954346,-0.3919332027435303
1772883287963446500,1.890446533203125,-1.322157859802246,-1.078958511352539,-0.21050626039505005
1772883287980047000,1.907047119140625,-1.2264223098754883,-0.7579085826873779,-0.06471648812294006
1772883287996653800,1.92365380859375,-0.5173187255859375,-0.690920352935791,0.07494845986366272
1772883288013257200,1.94025732421875,-0.01375579833984375,-0.6845009326934814,0.2851611375808716
1772883288029862400,1.9568623046875,-0.09526729583740234,-0.636284351348877,0.47554415464401245
1772883288046468900,1.97346875,-0.21117591857910156,-0.5471549034118652,0.5593677759170532
1772883288063076400,1.990076416015625,0.05898475646972656,-0.5436422824859619,0.4862578511238098
1772883288079677700,2.006677734375,0.38720035552978516,-0.6477639675140381,0.3367066979408264
1772883288096283600,2.02328369140625,0.5514688491821289,-0.7150981426239014,0.13104450702667236
1772883288112888000,2.03988818359375,0.4109678268432617,-0.7714211940765381,-0.14267957210540771
1772883288129494500,2.05649462890625,0.05616474151611328,-0.7253830432891846,-0.43215590715408325
1772883288146086700,2.073086669921875,-0.2885093688964844,-0.5999979972839355,-0.5916638374328613
1772883288162694100,2.089694091796875,-0.6042308807373047,-0.4441707134246826,-0.6008815765380859
1772883288179294700,2.106294677734375,-0.8506240844726562,-0.3063654899597168,-0.48790568113327026
1772883288195901000,2.12290087890625,-0.9765529632568359,-0.23209643363952637,-0.3691985011100769
1772883288212506000,2.139506103515625,-0.9010171890258789,-0.24862098693847656,-0.22120758891105652
1772883288229127000,2.156126953125,-0.6824893951416016,-0.26841235160827637,-0.1717853844165802
1772883288245713200,2.172713134765625,-0.48639392852783203,-0.27381110191345215,-0.16448506712913513
1772883288262339800,2.18933984375,-0.311798095703125,-0.27889561653137207,-0.08191671967506409
1772883288278941200,2.205941162109375,-0.2978172302246094,-0.16963958740234375,0.04339216649532318
1772883288295544000,2.2225439453125,-0.4221487045288086,-0.06725001335144043,0.09483908116817474
1772883288312149200,2.239149169921875,-0.5261249542236328,0.02527165412902832,-0.009528875350952148
1772883288328753000,2.2557529296875,-0.6689748764038086,0.11872720718383789,-0.13727378845214844
1772883288345356800,2.272356689453125,-0.8638057708740234,0.1972343921661377,-0.2224442958831787
1772883288361964500,2.288964599609375,-0.8912820816040039,0.29079699516296387,-0.10647864639759064
1772883288378571500,2.305571533203125,-0.6249980926513672,0.4188241958618164,0.16197746992111206
1772883288395175700,2.32217578125,-0.18500423431396484,0.5091006755828857,0.4155137836933136
1772883288411781600,2.33878173828125,0.1141061782836914,0.5202963352203369,0.5667540431022644
1772883288428383500,2.355383544921875,0.5509920120239258,0.5399794578552246,0.5090149641036987
1772883288444991200,2.3719912109375,1.0477275848388672,0.6201207637786865,0.19224661588668823
1772883288461580300,2.388580322265625,1.2445487976074219,0.47194695472717285,0.06687957048416138
1772883288478201000,2.405201171875,1.6315546035766602,0.4209024906158447,-0.031510770320892334
1772883288494805000,2.421804931640625,1.9502220153808594,0.4823596477508545,-0.08998620510101318
1772883288511378200,2.438378173828125,1.799025535583496,0.3790450096130371,0.03275859355926514
1772883288528013800,2.455013916015625,1.5847845077514648,0.2601907253265381,0.0512317419052124
1772883288544618800,2.47161865234375,1.5052289962768555,-0.15572261810302734,-0.05721968412399292
1772883288561227300,2.488227294921875,1.6801042556762695,-0.8453947305679321,-0.03792542219161987
1772883288577831200,2.5048310546875,2.1980457305908203,-1.4125080108642578,0.06380802392959595
1772883288594436000,2.52143603515625,2.679513931274414,-1.9994370937347412,-0.06051450967788696
1772883288611039700,2.538039794921875,2.7126998901367188,-2.4166500568389893,-0.47630685567855835
1772883288627630000,2.554630126953125,1.9777202606201172,-2.638179063796997,-0.8086868524551392
1772883288644234500,2.571234375,0.6305780410766602,-2.5214076042175293,-0.8814955949783325
1772883288660849000,2.587848876953125,-0.5056848526000977,-2.2343437671661377,-0.9671202301979065
1772883288677444600,2.604444580078125,-1.1362171173095703,-2.007267951965332,-1.0673267841339111
1772883288694057500,2.621057373046875,-1.4140515327453613,-1.7899389266967773,-1.0972346067428589
1772883288710658800,2.637658935546875,-1.3170385360717773,-1.6523463726043701,-0.9766043424606323
1772883288727261700,2.65426171875,-0.8391504287719727,-1.6816394329071045,-0.7239342331886292
1772883288743864800,2.67086474609375,-0.38210010528564453,-1.730782389640808,-0.501550555229187
1772883288760492300,2.6874921875,-0.16338157653808594,-1.6546440124511719,-0.3936387300491333
1772883288777095200,2.70409521484375,-0.09189224243164062,-1.5872828960418701,-0.4085526466369629
1772883288793696300,2.7206962890625,-0.014389991760253906,-1.586318016052246,-0.5185240507125854
1772883288810288600,2.73728857421875,-0.030297279357910156,-1.5318725109100342,-0.6468035578727722
1772883288826908200,2.753908203125,-0.045311927795410156,-1.4389126300811768,-0.685637354850769
1772883288843508000,2.770508056640625,-0.11782360076904297,-1.2716038227081299,-0.713644802570343
1772883288860106500,2.7871064453125,-0.28851318359375,-1.0603362321853638,-0.6916078925132751
1772883288876721700,2.8037216796875,-0.4394798278808594,-0.9114670753479004,-0.5873555541038513
1772883288893322500,2.820322509765625,-0.5460977554321289,-0.7532436847686768,-0.5438067317008972
1772883288909937400,2.8369375,-0.6149082183837891,-0.6974924802780151,-0.4973500967025757
1772883288926534700,2.85353466796875,-0.6547574996948242,-0.6310644149780273,-0.45897340774536133
1772883288943148800,2.870148681640625,-0.5229043960571289,-0.5520379543304443,-0.3053780198097229
1772883288959757600,2.886757568359375,-0.41530323028564453,-0.4739530086517334,-0.1330559253692627
1772883288976346000,2.90334619140625,-0.4614734649658203,-0.3335916996002197,0.011270880699157715
1772883288992953600,2.91995361328125,-0.4997224807739258,-0.20291924476623535,-0.04843342304229736
1772883289009564200,2.936564208984375,-0.4654722213745117,-0.1425647735595703,-0.20112717151641846
1772883289026168300,2.953168212890625,-0.3530387878417969,-0.03035569190979004,-0.21789491176605225
1772883289042775000,2.969775146484375,-0.066680908203125,0.19106483459472656,-0.08057844638824463
1772883289059377200,2.986377197265625,0.23141098022460938,0.31677842140197754,0.11713933944702148
1772883289075987000,3.002987060546875,0.4349098205566406,0.41780877113342285,0.301098108291626
1772883289092583700,3.019583740234375,0.4463014602661133,0.464796781539917,0.44020557403564453
1772883289109191400,3.03619140625,0.6139965057373047,0.4493563175201416,0.4980255365371704
1772883289125783300,3.052783203125,1.022822380065918,0.3612837791442871,0.4693796634674072
1772883289142385400,3.069385498046875,1.529149055480957,0.175828218460083,0.4060990810394287
1772883289158999800,3.085999755859375,1.7394790649414062,-0.07239246368408203,0.3675163984298706
1772883289175600600,3.1026005859375,1.5850133895874023,-0.15452837944030762,0.27320897579193115
1772883289192204500,3.11920458984375,1.2233028411865234,0.09911584854125977,0.18842017650604248
1772883289208809000,3.13580908203125,0.7788906097412109,0.13540959358215332,0.25837790966033936
1772883289225415400,3.15241552734375,0.8458614349365234,0.24007153511047363,0.09501230716705322
1772883289242038300,3.169038330078125,0.8310785293579102,0.35669994354248047,-0.046060800552368164
1772883289258640000,3.185639892578125,0.4367389678955078,0.39171338081359863,0.09395265579223633
1772883289275244300,3.202244384765625,0.19195175170898438,0.15453076362609863,0.4825246334075928
1772883289291850000,3.21885009765625,0.5262165069580078,-0.3542497158050537,0.7247265577316284
1772883289308455200,3.235455078125,1.1864233016967773,-0.9865462779998779,0.756781816482544
1772883289325056000,3.252055908203125,1.5026865005493164,-1.4935717582702637,0.5465775728225708
1772883289341664000,3.2686640625,1.3342323303222656,-1.8497283458709717,0.23349344730377197
1772883289358274600,3.285274658203125,0.776092529296875,-2.0514936447143555,0.019061386585235596
1772883289374858800,3.301858642578125,0.22577667236328125,-2.057893753051758,-0.2014051079750061
1772883289391459600,3.31845947265625,-0.015625953674316406,-1.996341347694397,-0.29688966274261475
1772883289408071000,3.33507080078125,0.08994579315185547,-1.9894460439682007,-0.23860317468643188
1772883289424693500,3.351693603515625,0.13433551788330078,-1.9991259574890137,-0.05379617214202881
1772883289441294800,3.368294921875,-0.13210582733154297,-1.8421306610107422,0.22450494766235352
1772883289457901600,3.384901611328125,-0.5266313552856445,-1.6023638248443604,0.5011467337608337
1772883289474505200,3.401505126953125,-0.8427658081054688,-1.4230194091796875,0.6550413370132446
1772883289491111000,3.41811083984375,-0.7765178680419922,-1.325690746307373,0.6665953397750854
1772883289507715800,3.4347158203125,-0.4282712936401367,-1.259385108947754,0.5838329195976257
1772883289524317000,3.45131689453125,-0.21914291381835938,-1.1293110847473145,0.5145487785339355
1772883289540928800,3.4679287109375,-0.39168453216552734,-1.0096518993377686,0.4129837155342102
1772883289557527800,3.48452783203125,-0.5944423675537109,-0.9152083396911621,0.2583503723144531
1772883289574139600,3.5011396484375,-0.6204109191894531,-0.8520317077636719,-0.018248438835144043
1772883289590741200,3.5177412109375,-0.6825466156005859,-0.7056717872619629,-0.2580054998397827
1772883289607329000,3.5343291015625,-0.8014516830444336,-0.5456681251525879,-0.37072286009788513
1772883289623924000,3.550924072265625,-0.7384824752807617,-0.44205617904663086,-0.3751986026763916
1772883289640543200,3.567543212890625,-0.48912715911865234,-0.34720587730407715,-0.23677963018417358
1772883289657147600,3.584147705078125,-0.1646099090576172,-0.2463533878326416,-0.030132770538330078
1772883289673752300,3.60075244140625,0.09099197387695312,-0.1878807544708252,0.04679238796234131
1772883289690358000,3.61735791015625,0.11625862121582031,-0.11517095565795898,0.0867394208908081
1772883289706960000,3.6339599609375,-0.17313385009765625,-0.024147748947143555,0.1551593542098999
1772883289723568000,3.650568115234375,-0.4702262878417969,0.05640697479248047,0.13924956321716309
1772883289740194600,3.667194580078125,-0.5618400573730469,0.1304798126220703,0.0889628529548645
1772883289756781000,3.683781005859375,-0.4051198959350586,0.16305971145629883,-0.01531904935836792
1772883289773401000,3.700401123046875,-0.06885528564453125,0.18633031845092773,-0.07555240392684937
1772883289790002400,3.71700244140625,0.2557334899902344,0.17408013343811035,-0.07051163911819458
1772883289806606300,3.7336064453125,0.42124080657958984,0.1599435806274414,-0.06825810670852661
1772883289823212500,3.750212646484375,0.20812606811523438,0.14499378204345703,-0.12158483266830444
1772883289839817700,3.766817626953125,-0.05081367492675781,0.17511343955993652,-0.08598953485488892
1772883289856422100,3.783422119140625,-0.1128692626953125,0.1693589687347412,0.0029889941215515137
1772883289873027300,3.80002734375,0.11260128021240234,0.11734175682067871,0.09210485219955444
1772883289889632500,3.816632568359375,0.6141214370727539,0.2611966133117676,0.08380687236785889
1772883289906237200,3.8332373046875,0.7414340972900391,0.32231807708740234,0.12225937843322754
1772883289922842600,3.849842529296875,0.776214599609375,0.26723527908325195,0.017859160900115967
1772883289939447300,3.866447265625,0.7711315155029297,0.3256411552429199,-0.19555968046188354
1772883289956052700,3.883052734375,0.5409755706787109,0.3160257339477539,-0.1610872745513916
1772883289972658200,3.899658203125,0.23419570922851562,0.26874876022338867,0.1524132490158081
1772883289989262800,3.916262939453125,0.25473785400390625,0.14083433151245117,0.5275583863258362
1772883290005867300,3.9328671875,0.8853158950805664,-0.22695207595825195,0.790276825428009
1772883290022473500,3.949473388671875,1.6460294723510742,-0.7793378829956055,0.775389552116394
1772883290039092700,3.9660927734375,1.9486961364746094,-1.3379504680633545,0.5403853058815002
1772883290055682800,3.982682861328125,1.9003067016601562,-1.722076177597046,0.2483609914779663
1772883290072288500,3.99928857421875,1.3532752990722656,-1.941246747970581,0.031802475452423096
1772883290088893200,4.01589306640625,0.5136995315551758,-1.9053051471710205,-0.15916678309440613
1772883290105481200,4.032481201171875,-0.2923421859741211,-1.7442896366119385,-0.33095991611480713
1772883290122090000,4.049090087890625,-0.64990234375,-1.6485772132873535,-0.44543886184692383
1772883290138694400,4.0656943359375,-0.5828666687011719,-1.6442582607269287,-0.5220205783843994
1772883290155300000,4.082300048828125,-0.2570381164550781,-1.7132632732391357,-0.4462643265724182
1772883290171905000,4.098905029296875,0.187286376953125,-1.7277679443359375,-0.21354740858078003
1772883290188510500,4.115510498046875,0.5037984848022461,-1.7007594108581543,-0.0001399517059326172
1772883290205115000,4.132114990234375,0.5022068023681641,-1.646413803100586,0.0722358226776123
1772883290221720600,4.148720458984375,0.22327518463134766,-1.5640459060668945,0.03823506832122803
1772883290238343000,4.165343017578125,-0.10415840148925781,-1.4538629055023193,0.01552116870880127
1772883290254941200,4.181941162109375,-0.12935256958007812,-1.3292007446289062,-0.014262795448303223
1772883290271549000,4.198548828125,0.13642215728759766,-1.2537555694580078,-0.027805209159851074
1772883290288154600,4.215154541015625,0.3511972427368164,-1.213888168334961,-0.1235608458518982
1772883290304759000,4.231759033203125,0.16229534149169922,-1.1771361827850342,-0.305411696434021
1772883290321364200,4.2483642578125,-0.20769691467285156,-1.0846409797668457,-0.474505215883255
1772883290337969200,4.26496923828125,-0.5189571380615234,-0.9633538722991943,-0.5901434421539307
1772883290354574600,4.28157470703125,-0.66339111328125,-0.8237099647521973,-0.625217616558075
1772883290371180300,4.29818017578125,-0.5831298828125,-0.6949527263641357,-0.5964716672897339
1772883290387784400,4.314784423828125,-0.3455181121826172,-0.6103358268737793,-0.4966464042663574
1772883290404389400,4.331389404296875,-0.1442699432373047,-0.5656554698944092,-0.4780080318450928
1772883290420995300,4.347995361328125,-0.28516197204589844,-0.46669507026672363,-0.5820237398147583
1772883290437600500,4.3646005859375,-0.6241674423217773,-0.2838292121887207,-0.6372854709625244
1772883290454204700,4.38120458984375,-0.8565645217895508,-0.08683419227600098,-0.683419942855835
1772883290470809900,4.397809814453125,-0.7059335708618164,0.036931514739990234,-0.6339442729949951
1772883290487415300,4.414415283203125,-0.4271402359008789,0.09509873390197754,-0.6251175403594971
1772883290504020000,4.43102001953125,-0.1685009002685547,0.16991662979125977,-0.6681800484657288
1772883290520625400,4.44762548828125,-0.02886486053466797,0.24683690071105957,-0.6101248264312744
1772883290537230300,4.464230224609375,-0.0733184814453125,0.2981748580932617,-0.5803980827331543
1772883290553835500,4.48083544921875,-0.1603260040283203,0.3492426872253418,-0.5173247456550598
1772883290570440700,4.497440673828125,-0.2847890853881836,0.3977389335632324,-0.36078330874443054
1772883290587028500,4.514028564453125,-0.09200477600097656,0.373049259185791,-0.21772974729537964
1772883290603637000,4.530636962890625,0.420867919921875,0.24864411354064941,-0.10387784242630005
1772883290620242400,4.547242431640625,0.8643589019775391,0.008082151412963867,-0.10542923212051392
1772883290636847000,4.56384716796875,0.9748592376708984,-0.08237671852111816,-0.2515832185745239
1772883290653452300,4.580452392578125,0.694061279296875,-0.1986539363861084,-0.29342055320739746
1772883290670057200,4.59705712890625,0.29865550994873047,-0.19527578353881836,-0.31032130122184753
1772883290686663000,4.613662841796875,0.05113792419433594,-0.10128355026245117,-0.3909206986427307
1772883290703267600,4.630267578125,-0.17107105255126953,-0.07288718223571777,-0.3545270562171936
1772883290719875800,4.646875732421875,-0.25223350524902344,-0.1589832305908203,-0.241155207157135
1772883290736491300,4.6634912109375,-0.19682979583740234,-0.4165303707122803,-0.11817800998687744
1772883290753097200,4.68009716796875,0.05720996856689453,-0.7176380157470703,0.026398837566375732
1772883290769701400,4.696701416015625,0.5238704681396484,-0.9599242210388184,0.06826084852218628
1772883290786306800,4.713306884765625,0.9599485397338867,-1.244891881942749,0.10554736852645874
1772883290802911200,4.7299111328125,1.1975088119506836,-1.4062514305114746,0.17241162061691284
1772883290819516700,4.7465166015625,1.1897001266479492,-1.3693675994873047,0.29412269592285156
1772883290836122400,4.763122314453125,0.9194984436035156,-1.2395765781402588,0.4627106189727783
1772883290852726500,4.7797265625,0.5953969955444336,-1.0435798168182373,0.7513310313224792
1772883290869332200,4.796332275390625,0.36849212646484375,-0.7809960842132568,1.1510851383209229
1772883290885937400,4.8129375,0.22435951232910156,-0.5084552764892578,1.5533452033996582
1772883290902541800,4.829541748046875,0.25111961364746094,-0.344984769821167,1.8462473154067993
1772883290919146200,4.846146240234375,0.2243976593017578,-0.34719038009643555,2.002469301223755
1772883290935761400,4.862761474609375,-0.032210350036621094,-0.3782002925872803,2.030527114868164
1772883290952358000,4.87935791015625,-0.2812938690185547,-0.37792229652404785,1.9603676795959473
1772883290968963000,4.895963134765625,-0.3456430435180664,-0.46710991859436035,1.7507250308990479
1772883290985567500,4.9125673828125,-0.13246726989746094,-0.690138578414917,1.3729842901229858
1772883291002172400,4.92917236328125,0.1714038848876953,-0.9344022274017334,0.8842689990997314
1772883291018778000,4.945778076171875,0.2919492721557617,-1.0673367977142334,0.4738621115684509
1772883291035383000,4.962383056640625,0.10285758972167969,-1.047171711921692,0.22736555337905884
1772883291051988000,4.978988037109375,-0.3608226776123047,-0.825433611869812,0.11687964200973511
1772883291068593000,4.995593017578125,-0.8767595291137695,-0.5446138381958008,0.06317493319511414
1772883291085181400,5.012181396484375,-1.1553564071655273,-0.32778429985046387,0.02206367254257202
1772883291101789200,5.0287890625,-1.1558637619018555,-0.20299506187438965,0.006608814001083374
1772883291118395100,5.04539501953125,-1.0770187377929688,-0.1570436954498291,0.017442554235458374
1772883291134999300,5.061999267578125,-0.9051713943481445,-0.08566761016845703,-0.024127155542373657
1772883291151605000,5.07860498046875,-0.742091178894043,-0.04901313781738281,-0.07755747437477112
1772883291168218000,5.095218017578125,-0.6873989105224609,0.04499983787536621,-0.11832067370414734
1772883291184814800,5.11181494140625,-0.7486324310302734,0.16222190856933594,-0.19666966795921326
1772883291201419800,5.128419677734375,-0.8954744338989258,0.2747218608856201,-0.2613356411457062
1772883291218042400,5.14504248046875,-1.0619926452636719,0.43897247314453125,-0.2866016626358032
1772883291234643700,5.161643798828125,-1.0066871643066406,0.5256445407867432,-0.24962402880191803
1772883291251248600,5.17824853515625,-0.6529855728149414,0.5631308555603027,-0.3028588593006134
1772883291267854000,5.19485400390625,-0.19040489196777344,0.5364992618560791,-0.3634394109249115
1772883291284459000,5.211458984375,0.27121543884277344,0.48003220558166504,-0.38625016808509827
1772883291301064400,5.228064453125,0.6746664047241211,0.41976308822631836,-0.3688896894454956
1772883291317669400,5.24466943359375,1.0196189880371094,0.3637230396270752,-0.28276970982551575
1772883291334273800,5.261273681640625,1.34906005859375,0.3703289031982422,-0.19409465789794922
1772883291350879200,5.277879150390625,1.5052900314331055,0.4893066883087158,-0.2041405737400055
1772883291367484700,5.294484619140625,1.553858757019043,0.6244113445281982,-0.28070226311683655
1772883291384089000,5.311089111328125,1.6544809341430664,0.6802375316619873,-0.3679158687591553
1772883291400694500,5.327694580078125,1.880615234375,0.700927734375,-0.36959215998649597
1772883291417300200,5.34430029296875,2.2149887084960938,0.6579248905181885,-0.3377178907394409
1772883291433904400,5.360904296875,2.676457405090332,0.4241604804992676,-0.3198133707046509
1772883291450509600,5.377509521484375,3.167407989501953,-0.06710052490234375,-0.2273350954055786
1772883291467115000,5.394114990234375,3.23052978515625,-0.6116873025894165,-0.10016113519668579
1772883291483720000,5.410719970703125,2.814642906188965,-1.0661885738372803,-0.005359649658203125
1772883291500325400,5.427325439453125,2.451785087585449,-1.3495113849639893,0.09075286984443665
1772883291516897300,5.443897216796875,2.367983818054199,-1.5692955255508423,0.05737769603729248
1772883291533535000,5.460534912109375,2.231806755065918,-1.8441357612609863,-0.15124577283859253
1772883291550140400,5.477140380859375,1.4656028747558594,-2.0656399726867676,-0.2889532744884491
1772883291566728400,5.493728515625,0.11158084869384766,-1.9825557470321655,-0.3236156404018402
1772883291583336700,5.510336669921875,-1.1502227783203125,-1.7526226043701172,-0.2920697331428528
1772883291599941600,5.526941650390625,-1.9554615020751953,-1.4496617317199707,-0.26019716262817383
1772883291616534500,5.543534423828125,-2.1441140174865723,-1.249653935432434,-0.2160361409187317
1772883291633152000,5.560152099609375,-1.878096580505371,-1.168830394744873,-0.19814056158065796
1772883291649753900,5.57675390625,-1.5526113510131836,-1.1065090894699097,-0.27094316482543945
1772883291666365400,5.593365478515625,-1.1296844482421875,-1.040276050567627,-0.4032420516014099
1772883291682967300,5.60996728515625,-0.6382217407226562,-1.0448236465454102,-0.5184026956558228
1772883291699572200,5.626572265625,-0.30496883392333984,-1.1165127754211426,-0.6037558317184448
1772883291716195000,5.643195068359375,-0.14873504638671875,-1.185321569442749,-0.757006824016571
1772883291732795600,5.659795654296875,0.075927734375,-1.224940299987793,-0.8169237971305847
1772883291749401000,5.676401123046875,0.44335365295410156,-1.2610812187194824,-0.8382013440132141
1772883291766006800,5.6930068359375,0.6156330108642578,-1.3540661334991455,-0.8583356142044067
1772883291782611200,5.709611083984375,0.31882190704345703,-1.4135212898254395,-0.9597620368003845
1772883291799216400,5.72621630859375,-0.2546730041503906,-1.3264613151550293,-1.109872579574585
1772883291815821800,5.74282177734375,-0.6868095397949219,-1.203237533569336,-1.1410338878631592
1772883291832425500,5.759425537109375,-0.6984405517578125,-1.1632969379425049,-0.9639211893081665
1772883291849057300,5.776057373046875,-0.3542594909667969,-1.3081533908843994,-0.7655839323997498
1772883291865637000,5.79263720703125,-0.1624765396118164,-1.4150304794311523,-0.680195689201355
1772883291882241800,5.80924169921875,-0.5340280532836914,-1.3711223602294922,-0.67612624168396
1772883291898847000,5.825846923828125,-1.1568269729614258,-1.1372342109680176,-0.6756317019462585
1772883291915452200,5.8424521484375,-1.644911766052246,-0.8389687538146973,-0.5740439891815186
1772883291932039400,5.859039306640625,-1.861558437347412,-0.48487401008605957,-0.46827179193496704
1772883291948653000,5.875653076171875,-1.7581863403320312,-0.19388890266418457,-0.37331557273864746
1772883291965268000,5.89226806640625,-1.4329137802124023,0.06180977821350098,-0.276345819234848
1772883291981868300,5.908868408203125,-0.903254508972168,0.24284744262695312,-0.17601284384727478
1772883291998481200,5.925481201171875,-0.32583141326904297,0.37895750999450684,-0.05619090795516968
1772883292015069700,5.942069580078125,0.06908988952636719,0.4172098636627197,0.08093869686126709
1772883292031687400,5.9586875,0.3178367614746094,0.43546080589294434,0.19450509548187256
1772883292048276000,5.97527587890625,0.5311670303344727,0.4141373634338379,0.28330445289611816
1772883292064880400,5.99188037109375,0.8558902740478516,0.31052470207214355,0.29588836431503296
1772883292081489400,6.008489501953125,1.3449316024780273,0.31185412406921387,0.2077743411064148
1772883292098094300,6.02509423828125,1.7874574661254883,0.31267857551574707,0.21532005071640015
1772883292114688300,6.041688232421875,1.7599029541015625,0.2147810459136963,0.10930818319320679
1772883292131303200,6.05830322265625,1.6121644973754883,0.16161060333251953,-0.2780556082725525
1772883292147910700,6.07491064453125,1.688767433166504,0.05785393714904785,-0.667211651802063
1772883292164514600,6.0915146484375,1.6191797256469727,-0.07202315330505371,-0.8270522952079773
1772883292181119700,6.10811962890625,1.1584272384643555,-0.13706588745117188,-0.7343032360076904
1772883292197724700,6.124724609375,0.6247415542602539,-0.323958158493042,-0.4167357385158539
1772883292214347000,6.141346923828125,0.4246206283569336,-0.6351079940795898,-0.07150331139564514
1772883292230948400,6.1579482421875,0.5118370056152344,-0.981003999710083,0.1553756594657898
1772883292247542000,6.1745419921875,0.6922178268432617,-1.152223825454712,0.2672981321811676
1772883292264158500,6.191158447265625,0.7820768356323242,-1.3025221824645996,0.34419721364974976
1772883292280760300,6.20776025390625,0.9459781646728516,-1.3746516704559326,0.2189544141292572
1772883292297369000,6.224369140625,1.0734777450561523,-1.4269235134124756,0.19438153505325317
1772883292313974000,6.24097412109375,0.9294729232788086,-1.3347679376602173,0.33513712882995605
1772883292330563300,6.257563232421875,0.41730213165283203,-1.1707127094268799,0.5629720091819763
1772883292347172400,6.27417236328125,-0.28055572509765625,-1.013596534729004,0.6737969517707825
1772883292363789800,6.290789794921875,-0.8782787322998047,-0.9196853637695312,0.7797065377235413
1772883292380394000,6.30739404296875,-1.2554359436035156,-0.8437795639038086,0.9160597920417786
1772883292396999400,6.32399951171875,-1.0876350402832031,-0.9188938140869141,0.9970312118530273
1772883292413604900,6.34060498046875,-0.2672243118286133,-1.0816612243652344,0.8754962086677551
1772883292430192600,6.357192626953125,0.38407135009765625,-1.226799488067627,0.690300703048706
1772883292446801700,6.3738017578125,0.5848884582519531,-1.307450294494629,0.5707050561904907
1772883292463419400,6.39041943359375,0.0684518814086914,-1.228827953338623,0.4686099886894226
1772883292480024800,6.40702490234375,-0.8134059906005859,-0.9570636749267578,0.34474146366119385
1772883292496630000,6.423630126953125,-1.5030689239501953,-0.6687288284301758,0.11677730083465576
1772883292513235000,6.44023486328125,-2.0208921432495117,-0.46965646743774414,-0.09308353811502457
1772883292529839400,6.45683935546875,-2.2987184524536133,-0.24842047691345215,-0.0864265188574791
1772883292546436400,6.473436279296875,-2.2073936462402344,-0.1449275016784668,0.01707535609602928
1772883292563036400,6.490036376953125,-1.617924690246582,-0.14369463920593262,0.09747888892889023
1772883292579649300,6.506649169921875,-0.9178123474121094,-0.20410561561584473,0.13549917936325073
1772883292596247300,6.523247314453125,-0.46930408477783203,-0.18848609924316406,0.12164372950792313
1772883292612852200,6.539852294921875,-0.3138914108276367,-0.11044120788574219,0.05038464069366455
1772883292629456600,6.55645654296875,-0.39575672149658203,-0.04611611366271973,-0.03570401668548584
1772883292646061800,6.573061767578125,-0.4307432174682617,0.08923578262329102,-0.07771755754947662
1772883292662666500,6.58966650390625,-0.39577388763427734,0.26699304580688477,0.05106711387634277
1772883292679272200,6.606272216796875,-0.3523426055908203,0.4226868152618408,0.09102994203567505
1772883292695880200,6.622880126953125,-0.2570371627807617,0.521723747253418,0.04725262150168419
1772883292712492500,6.639492431640625,-0.07801532745361328,0.5773930549621582,-0.010427676141262054
1772883292729103600,6.656103515625,0.2398061752319336,0.5953600406646729,0.033169493079185486
1772883292745676800,6.6726767578125,0.47586727142333984,0.6025464534759521,0.020136887207627296
1772883292762311000,6.689310791015625,0.5099477767944336,0.6211011409759521,0.05548878014087677
1772883292778915800,6.705915771484375,0.5333938598632812,0.7366752624511719,0.09126457571983337
1772883292795521000,6.72252099609375,0.44011783599853516,0.92449951171875,0.04351995512843132
1772883292812126500,6.73912646484375,0.26577186584472656,0.8919677734375,-0.21349498629570007
1772883292828731100,6.755731201171875,0.42853260040283203,0.710395097732544,-0.42027807235717773
1772883292845336300,6.77233642578125,0.8716907501220703,0.4840254783630371,-0.5013501048088074
1772883292861941200,6.788941162109375,1.4988040924072266,0.2821085453033447,-0.46794721484184265
1772883292878546700,6.805546630859375,2.0745925903320312,0.15208935737609863,-0.4457971751689911
1772883292895151900,6.82215185546875,2.3548574447631836,-0.08250260353088379,-0.38232675194740295
1772883292911756800,6.8387568359375,2.4867448806762695,-0.3456389904022217,-0.22990304231643677
1772883292928361200,6.855361328125,2.4780654907226562,-0.4980957508087158,-0.15573012828826904
1772883292944950500,6.871950439453125,2.320089340209961,-0.7360537052154541,0.04400894045829773
1772883292961556500,6.888556396484375,2.2449254989624023,-0.9367024898529053,0.12909463047981262
1772883292978176800,6.9051767578125,2.2772884368896484,-1.2015798091888428,0.1297406107187271
1772883292994782000,6.921781982421875,2.153111457824707,-1.4550796747207642,0.13363733887672424
1772883293011387400,6.938387451171875,1.4108352661132812,-1.4858121871948242,0.0059045907109975815
1772883293027992000,6.954991943359375,0.20143604278564453,-1.373190999031067,-0.2400229126214981
1772883293044580000,6.971580078125,-0.7460412979125977,-1.2617106437683105,-0.4566265642642975
1772883293061188400,6.988188232421875,-1.138716697692871,-1.2242937088012695,-0.48647043108940125
1772883293077794000,7.0047939453125,-1.0564489364624023,-1.1878999471664429,-0.4146772623062134
1772883293094399200,7.021399169921875,-0.7398700714111328,-1.1305584907531738,-0.368791788816452
1772883293110992400,7.037992431640625,-0.5285882949829102,-1.2058241367340088,-0.42697271704673767
1772883293127608600,7.054608642578125,-0.5124673843383789,-1.243072509765625,-0.5007487535476685
1772883293144214300,7.07121435546875,-0.3183259963989258,-1.2448136806488037,-0.5998772978782654
1772883293160819200,7.087819091796875,-0.18540191650390625,-1.3133034706115723,-0.618951678276062
1772883293177424400,7.10442431640625,-0.25174999237060547,-1.29952073097229,-0.5826410055160522
1772883293194046200,7.121046142578125,-0.25620365142822266,-1.2793474197387695,-0.47924768924713135
1772883293210648300,7.1376484375,-0.11160755157470703,-1.1915981769561768,-0.45400142669677734
1772883293227252700,7.154252685546875,-0.2258930206298828,-1.127488613128662,-0.5438778400421143
1772883293243868200,7.1708681640625,-0.5802412033081055,-1.0294427871704102,-0.6987064480781555
1772883293260462800,7.187462890625,-0.9048967361450195,-0.9027841091156006,-0.6938196420669556
1772883293277069000,7.204069091796875,-0.8854646682739258,-0.7923290729522705,-0.595328688621521
1772883293293673700,7.220673828125,-0.689910888671875,-0.7677962779998779,-0.5457649230957031
1772883293310277400,7.23727734375,-0.7082424163818359,-0.7298059463500977,-0.5032998919487
1772883293326884400,7.25388427734375,-0.7976903915405273,-0.6125526428222656,-0.46459734439849854
1772883293343491600,7.27049169921875,-0.833038330078125,-0.5076720714569092,-0.4407617449760437
1772883293360093700,7.28709375,-0.780644416809082,-0.42239856719970703,-0.5102652907371521
1772883293376699000,7.303698974609375,-0.7661781311035156,-0.353534460067749,-0.47718140482902527
1772883293393303600,7.320303466796875,-0.7756481170654297,-0.20867586135864258,-0.3273845911026001
1772883293409909000,7.336908935546875,-0.7554464340209961,-0.06034445762634277,-0.19525310397148132
1772883293426514200,7.35351416015625,-0.6744527816772461,0.02744007110595703,-0.2351727932691574
1772883293443102500,7.3701025390625,-0.45078277587890625,0.0056514739990234375,-0.3784826397895813
1772883293459724500,7.386724609375,-0.11081790924072266,-0.08358144760131836,-0.41100525856018066
1772883293476330000,7.403330078125,-0.011608123779296875,-0.11431527137756348,-0.2905403673648834
1772883293492934400,7.419934326171875,0.18289852142333984,0.03493237495422363,0.07207360863685608
1772883293509539300,7.436539306640625,0.6708383560180664,0.04834437370300293,0.23753023147583008
1772883293526127600,7.453127685546875,1.3434925079345703,-0.026533126831054688,0.18397799134254456
1772883293542724000,7.46972412109375,1.7737340927124023,0.06872868537902832,0.000576406717300415
1772883293559341000,7.486341064453125,1.4778528213500977,0.16506028175354004,-0.0017523765563964844
1772883293575946200,7.5029462890625,1.0226068496704102,0.2868976593017578,-0.033716797828674316
1772883293592551000,7.519551025390625,0.7892799377441406,0.4960639476776123,-0.11700710654258728
1772883293609156600,7.536156494140625,0.5314836502075195,0.4559199810028076,0.1133016049861908
1772883293625761000,7.552760986328125,0.41370391845703125,0.19091320037841797,0.450035035610199
1772883293642366500,7.569366455078125,0.6290416717529297,-0.2532210350036621,0.7601839303970337
1772883293658971400,7.585971435546875,0.9275856018066406,-0.8417770862579346,0.9397041201591492
1772883293675576800,7.602576904296875,0.8768386840820312,-1.2617497444152832,1.1352697610855103
1772883293692199200,7.61919921875,0.532343864440918,-1.489734172821045,1.077364206314087
1772883293708800000,7.635800048828125,0.08456134796142578,-1.5271320343017578,0.8658217787742615
1772883293725405400,7.652405517578125,-0.21512889862060547,-1.457740068435669,0.6039414405822754
1772883293741984300,7.668984375,-0.16202926635742188,-1.3961864709854126,0.39924541115760803
1772883293758611700,7.68561181640625,-0.026459693908691406,-1.2808983325958252,0.41455313563346863
1772883293775225000,7.70222509765625,-0.06853103637695312,-1.0366907119750977,0.6426620483398438
1772883293791809000,7.71880908203125,-0.18107128143310547,-0.8670454025268555,0.8349869251251221
1772883293808430800,7.735430908203125,-0.3579244613647461,-0.7136795520782471,0.7819586992263794
1772883293825035800,7.752035888671875,-0.47659778594970703,-0.6187419891357422,0.7003645300865173
1772883293841666300,7.768666259765625,-0.2734031677246094,-0.5559360980987549,0.700917661190033
1772883293858250500,7.78525048828125,0.27796077728271484,-0.5718839168548584,0.8845826983451843
1772883293874847000,7.801846923828125,0.7921342849731445,-0.5335838794708252,1.016819953918457
1772883293891456000,7.8184560546875,1.0047388076782227,-0.5188920497894287,0.9781413674354553
1772883293908061000,7.83506103515625,0.7629604339599609,-0.5173559188842773,0.728521466255188
1772883293924659200,7.8516591796875,0.22020721435546875,-0.46033382415771484,0.38849398493766785
1772883293941278200,7.8682783203125,-0.33403968811035156,-0.3473803997039795,0.09166482090950012
1772883293957876500,7.88487646484375,-0.6663732528686523,-0.19631552696228027,0.003465656191110611
1772883293974481700,7.901481689453125,-0.7814569473266602,-0.10447525978088379,0.08068399131298065
1772883293991086300,7.91808642578125,-0.7783803939819336,-0.10769248008728027,0.10583430528640747
1772883294007691800,7.93469189453125,-0.6761445999145508,-0.19733595848083496,0.2090684473514557
1772883294024279600,7.951279541015625,-0.5228366851806641,-0.1842052936553955,0.3553105890750885
1772883294040888000,7.96788818359375,-0.6490907669067383,-0.09882116317749023,0.23711568117141724
1772883294057493200,7.9844931640625,-0.7213726043701172,-0.059357643127441406,-0.09807082265615463
1772883294074098700,8.0010986328125,-0.7918615341186523,-0.029897689819335938,-0.38217172026634216
1772883294090703400,8.017703369140625,-0.9740753173828125,0.12257909774780273,-0.37954220175743103
1772883294107308500,8.03430859375,-1.1802501678466797,0.36741018295288086,-0.2011464387178421
1772883294123913200,8.050913330078124,-1.2802228927612305,0.531710147857666,-0.10956281423568726
1772883294140518700,8.0675185546875,-1.1389999389648438,0.5742387771606445,-0.1733284741640091
1772883294157123600,8.08412353515625,-0.9141178131103516,0.6170980930328369,-0.3140665888786316
1772883294173729000,8.10072900390625,-0.6949300765991211,0.6962196826934814,-0.40259844064712524
1772883294190350600,8.1173505859375,-0.4923591613769531,0.7504851818084717,-0.49022212624549866
1772883294206953000,8.133952880859376,-0.3566875457763672,0.7801222801208496,-0.5830622911453247
1772883294223557400,8.150557373046874,-0.1409292221069336,0.7089428901672363,-0.6922516226768494
1772883294240146400,8.167146484375,0.2854890823364258,0.4080924987792969,-0.6894596815109253
1772883294256767500,8.183767578125,0.6655149459838867,0.43743300437927246,-0.7893403172492981
1772883294273373400,8.20037353515625,0.7407913208007812,0.572002649307251,-0.7425940632820129
1772883294289977900,8.216977783203125,1.3345451354980469,0.43042683601379395,-0.5929837822914124
1772883294306587000,8.2335869140625,2.0492725372314453,0.416933536529541,-0.630899965763092
1772883294323187500,8.2501875,2.2530040740966797,0.42696619033813477,-0.613778829574585
1772883294339777000,8.266777099609374,2.373978614807129,0.3322319984436035,-0.39199885725975037
1772883294356398000,8.283398193359375,3.046842575073242,0.07848453521728516,-0.08046898245811462
1772883294373003300,8.300003173828125,3.740910530090332,-0.34746217727661133,0.2517051696777344
1772883294389608700,8.316608642578124,3.848644256591797,-0.6212489604949951,0.3661939799785614
1772883294406213400,8.33321337890625,3.656412124633789,-0.9243981838226318,0.3669069707393646
1772883294422818300,8.349818359375,3.3008432388305664,-1.2051284313201904,0.3158068358898163
1772883294439423700,8.366423828125,2.653596878051758,-1.389857292175293,0.2623879015445709
1772883294456028400,8.3830283203125,1.4678564071655273,-1.5214749574661255,0.16372910141944885
1772883294472633900,8.3996337890625,0.07835865020751953,-1.5240055322647095,-0.0003448575735092163
1772883294489238800,8.41623876953125,-1.1958074569702148,-1.3424431085586548,-0.13718444108963013
1772883294505826800,8.432826904296874,-2.0233631134033203,-1.20164155960083,-0.3363029956817627
1772883294522435000,8.44943505859375,-2.043031692504883,-1.2390427589416504,-0.4309762716293335
1772883294539028700,8.46602880859375,-1.5528812408447266,-1.3627326488494873,-0.39639371633529663
1772883294555631000,8.482631103515626,-1.328817367553711,-1.392714500427246,-0.3905278444290161
1772883294572251000,8.4992509765625,-1.4411401748657227,-1.3681855201721191,-0.5018438100814819
1772883294588852200,8.515852294921874,-1.2861042022705078,-1.3115367889404297,-0.5546503067016602
1772883294605464000,8.532464111328125,-1.1662616729736328,-1.283205270767212,-0.6439741253852844
1772883294622065700,8.549065673828125,-1.1340999603271484,-1.1801064014434814,-0.6512396931648254
1772883294638660400,8.565660400390625,-0.9762973785400391,-1.0530173778533936,-0.5653273463249207
1772883294655275800,8.58227587890625,-0.7208433151245117,-0.9733672142028809,-0.4761878550052643
1772883294671884500,8.598884521484376,-0.4105195999145508,-0.992304801940918,-0.5309180021286011
1772883294688499500,8.61549951171875,-0.3575248718261719,-1.0159292221069336,-0.6858701109886169
1772883294705088000,8.632087890625,-0.607823371887207,-0.8946356773376465,-0.7965468168258667
1772883294721709600,8.64870947265625,-0.7547416687011719,-0.7236764430999756,-0.5876917243003845
1772883294738280700,8.66528076171875,-0.4181804656982422,-0.603935956954956,-0.28221240639686584
1772883294754920000,8.681919921875,-0.0898141860961914,-0.6386380195617676,-0.15802402794361115
1772883294771525000,8.698525146484375,0.08115673065185547,-0.721052885055542,-0.20247602462768555
1772883294788129800,8.7151298828125,0.13567829132080078,-0.8054437637329102,-0.3008493185043335
1772883294804737500,8.731737548828125,-0.13861751556396484,-0.7027988433837891,-0.2620420455932617
1772883294821340400,8.74834033203125,-0.7757244110107422,-0.39273643493652344,-0.08686640858650208
1772883294837929000,8.764928955078124,-1.1049079895019531,-0.1522810459136963,0.012062162160873413
1772883294854550800,8.78155078125,-0.9972400665283203,-0.04570579528808594,0.09942474961280823
1772883294871151600,8.798151611328125,-0.6085624694824219,0.09970450401306152,0.14680272340774536
1772883294887760400,8.814760498046875,-0.3137016296386719,0.22256088256835938,0.18353477120399475
1772883294904365600,8.831365478515625,-0.24404430389404297,0.38030290603637695,0.19001984596252441
1772883294920970500,8.847970458984374,-0.1221914291381836,0.49407052993774414,0.32599684596061707
1772883294937563000,8.86456298828125,-0.1706714630126953,0.5896134376525879,0.5770280361175537
1772883294954180600,8.8811806640625,-0.09564495086669922,0.5409343242645264,0.7047592997550964
1772883294970785800,8.897785888671875,0.6090259552001953,0.28104209899902344,0.6307893991470337
1772883294987390500,8.914390380859375,1.5179986953735352,-0.0676882266998291,0.5077611207962036
1772883295003979300,8.930979248046874,1.9266986846923828,-0.06731319427490234,0.3368591070175171
1772883295020587500,8.94758740234375,1.7790155410766602,0.11583375930786133,0.40125465393066406
1772883295037173200,8.96417333984375,1.6446189880371094,0.16886472702026367,0.5628973245620728
1772883295053797000,8.980797119140625,1.1808795928955078,0.3959996700286865,0.18622103333473206
1772883295070403800,8.99740380859375,0.4855804443359375,0.5270929336547852,-0.06694027781486511
1772883295087007700,9.0140078125,0.5671405792236328,0.4685356616973877,-0.09809190034866333
1772883295103613000,9.030613037109376,1.3297796249389648,-0.10171723365783691,0.08164402842521667
1772883295120217600,9.047217529296875,1.6090717315673828,-0.6916172504425049,0.22950756549835205
1772883295136823300,9.0638232421875,1.4678525924682617,-1.0307538509368896,0.2870994210243225
1772883295153425000,9.0804248046875,1.2157402038574219,-1.2887542247772217,0.26834458112716675
1772883295170053600,9.0970537109375,0.9363622665405273,-1.350508451461792,0.1606912761926651
1772883295186651600,9.113651611328125,0.6185226440429688,-1.4327431917190552,-0.028535716235637665
1772883295203240700,9.13024072265625,0.27112579345703125,-1.5254755020141602,-0.29999274015426636
1772883295219878700,9.146878662109375,-0.030823707580566406,-1.3072595596313477,-0.3345649242401123
1772883295236453600,9.16345361328125,-0.29477405548095703,-1.082599401473999,-0.06940923631191254
1772883295253072400,9.180072265625,-0.3317251205444336,-0.9966239929199219,0.3936074376106262
1772883295269677600,9.196677490234375,-0.3167381286621094,-0.9256644248962402,0.9383077621459961
1772883295286282200,9.2132822265625,-0.4290885925292969,-0.957434892654419,0.9672791957855225
1772883295302871000,9.22987109375,-0.49669933319091797,-1.0774238109588623,0.6465966701507568
1772883295319487200,9.2464873046875,-0.5087509155273438,-1.218890905380249,0.3021093010902405
1772883295336114200,9.2631142578125,-0.27987003326416016,-1.274515151977539,0.3983272314071655
1772883295352703000,9.279702880859375,-0.06736373901367188,-1.1979076862335205,0.7285631895065308
1772883295369307600,9.2963076171875,-0.3218259811401367,-1.0502054691314697,0.6619187593460083
1772883295385912000,9.312912109375,-1.2410778999328613,-0.7940211296081543,0.14838442206382751
1772883295402507800,9.3295078125,-1.8673486709594727,-0.7459084987640381,-0.15241390466690063
1772883295419106600,9.3461064453125,-2.2957282066345215,-0.565093994140625,-0.3008418083190918
1772883295435713300,9.36271337890625,-2.1192917823791504,-0.41263771057128906,-0.1143263578414917
1772883295452333300,9.379333251953126,-1.5144309997558594,-0.37348508834838867,-0.22162294387817383
