time,seconds_elapsed,z,y,x
1772883286194998300,0.121998291015625,9.726225852966309,4.041477680206299,0.9619147181510925
1772883286211607800,0.13860791015625,9.728020668029785,3.9224345684051514,0.8608179688453674
1772883286228225000,0.15522509765625,9.986445426940918,3.9637107849121094,0.22791635990142822
1772883286244821200,0.1718212890625,10.362716674804688,3.7776687145233154,0.11485548317432404
1772883286261414400,0.188414306640625,10.89272689819336,3.102294445037842,0.259621262550354
1772883286278027800,0.20502783203125,11.128419876098633,2.5734808444976807,0.3451646566390991
1772883286294635500,0.221635498046875,11.112866401672363,2.193620204925537,0.5341976284980774
1772883286311209000,0.238208984375,11.196615219116211,1.8861424922943115,0.7752745151519775
1772883286327850500,0.2548505859375,11.037492752075195,1.7066807746887207,0.8273184299468994
1772883286344466200,0.271466064453125,10.469795227050781,1.6809579133987427,0.9308080077171326
1772883286361055200,0.28805517578125,9.722038269042969,1.730010747909546,0.9349954724311829
1772883286377660400,0.304660400390625,9.305686950683594,1.7730815410614014,0.9954141974449158
1772883286394265300,0.321265380859375,9.368498802185059,1.7629120349884033,1.114457130432129
1772883286410869200,0.337869140625,9.66939640045166,1.795215129852295,1.1084750890731812
1772883286427462000,0.3544619140625,9.78843879699707,1.866999864578247,1.2562319040298462
1772883286444081000,0.371080810546875,9.811769485473633,1.947757601737976,1.3908281326293945
1772883286460691200,0.387691162109375,9.616754531860352,1.963310956954956,1.5595221519470215
1772883286477290200,0.404290283203125,9.354740142822266,1.9872392416000366,1.8095721006393433
1772883286493880000,0.420880126953125,9.019146919250488,2.0679969787597656,1.9698911905288696
1772883286510499600,0.43749951171875,8.797810554504395,2.1750757694244385,2.0823538303375244
1772883286527072300,0.454072265625,8.764909744262695,2.160120725631714,2.1158533096313477
1772883286543710200,0.470710205078125,8.781659126281738,1.9513468742370605,1.8843477964401245
1772883286560313900,0.48731396484375,8.623732566833496,1.828116536140442,1.540379524230957
1772883286576922000,0.503922119140625,8.534002304077148,1.8969101905822754,1.220937728881836
1772883286593527000,0.520527099609375,8.347960472106934,1.9980069398880005,0.8638089895248413
1772883286610148900,0.53714892578125,8.22712230682373,2.280359983444214,0.7328019142150879
1772883286626751500,0.55375146484375,8.284550666809082,2.5674986839294434,0.8201399445533752
1772883286643340000,0.570340087890625,8.37727165222168,2.796013355255127,1.0558329820632935
1772883286659944200,0.586944091796875,8.704490661621094,3.060420274734497,1.347757339477539
1772883286676534300,0.6035341796875,8.937790870666504,3.157329559326172,1.5050854682922363
1772883286693143300,0.620143310546875,9.028120040893555,3.1268210411071777,1.303490161895752
1772883286709748500,0.63674853515625,9.05264663696289,3.046661376953125,1.140179991722107
1772883286726339800,0.65333984375,9.013762474060059,3.061018466949463,1.0636097192764282
1772883286742961000,0.6699609375,9.003593444824219,3.0993034839630127,1.1120643615722656
1772883286759559400,0.686559326171875,9.103493690490723,3.1387851238250732,1.1024930477142334
1772883286776184600,0.7031845703125,9.0514497756958,3.057429075241089,1.0301101207733154
1772883286792783400,0.719783447265625,9.084351539611816,3.077169895172119,0.9439685344696045
1772883286809390600,0.736390625,9.127422332763672,3.0687949657440186,0.9056833982467651
1772883286825985800,0.75298583984375,8.978468894958496,3.0628130435943604,0.8153542876243591
1772883286842585900,0.7695859375,8.658429145812988,3.195016384124756,0.6029912829399109
1772883286859207400,0.78620751953125,8.548956871032715,3.372683525085449,0.39900317788124084
1772883286875810800,0.802810791015625,8.97667407989502,3.52103853225708,0.40737804770469666
1772883286892416300,0.819416259765625,9.376275062561035,3.6358940601348877,0.3439682424068451
1772883286909004500,0.836004638671875,9.364311218261719,3.7740795612335205,0.40259242057800293
1772883286925609700,0.852609619140625,9.259027481079102,3.8009986877441406,0.4462614357471466
1772883286942230800,0.869230712890625,9.356534957885742,3.6735808849334717,0.38225340843200684
1772883286958835000,0.8858349609375,10.106684684753418,3.452843189239502,0.2763710021972656
1772883286975445500,0.902445556640625,10.961520195007324,3.431307554244995,-0.04426721855998039
1772883286992035000,0.91903515625,11.050653457641602,3.273979663848877,-0.012562318705022335
1772883287008650500,0.935650390625,10.898709297180176,3.284747362136841,0.2225325107574463
1772883287025241000,0.952240966796875,10.7766752243042,3.4271202087402344,0.21954147517681122
1772883287041861600,0.968861572265625,10.371091842651367,3.4025938510894775,0.32243284583091736
1772883287058465300,0.98546533203125,10.113265037536621,3.3990044593811035,0.4097708761692047
1772883287075078100,1.002078125,10.323833465576172,3.170490026473999,0.5359922647476196
1772883287091662300,1.018662353515625,11.157134056091309,2.507079839706421,0.8662018179893494
1772883287108280300,1.0352802734375,11.874980926513672,1.7389838695526123,0.9182456731796265
1772883287124872000,1.051871826171875,12.19202995300293,1.0893324613571167,0.6634100675582886
1772883287141492000,1.068491943359375,12.121440887451172,0.6275177597999573,0.23449662327766418
1772883287158079500,1.08507958984375,11.164910316467285,0.5048855543136597,-0.08614161610603333
1772883287174689500,1.101689453125,9.651450157165527,0.8189435601234436,-0.10887342691421509
1772883287191292000,1.1182919921875,8.601598739624023,1.189831018447876,-0.0526420995593071
1772883287207901700,1.134901611328125,8.227720260620117,1.506281852722168,0.02392822690308094
1772883287224492000,1.151491943359375,8.22114086151123,1.6247265338897705,0.09631111472845078
1772883287241120800,1.168120849609375,8.318049430847168,1.587039589881897,0.1579262912273407
1772883287257715000,1.18471484375,8.409575462341309,1.5822539329528809,0.2961117923259735
1772883287274336300,1.201336181640625,8.557332038879395,1.6313068866729736,0.33379876613616943
1772883287290935300,1.217935302734375,8.962915420532227,1.688734531402588,0.3128615617752075
1772883287307542300,1.234542236328125,9.144769668579102,1.6671991348266602,0.22073788940906525
1772883287324140300,1.251140380859375,9.057432174682617,1.667797327041626,0.10169496387243271
1772883287340725800,1.267725830078125,8.9910306930542,1.6103696823120117,-0.013160524889826775
1772883287357345800,1.284345703125,9.09093189239502,1.6821542978286743,0.14476576447486877
1772883287373955600,1.30095556640625,9.2859468460083,1.7976080179214478,0.3164508044719696
1772883287390551800,1.3175517578125,9.434301376342773,1.8137595653533936,0.28235307335853577
1772883287407160600,1.33416064453125,9.553942680358887,1.7587246894836426,0.1663011759519577
1772883287423779300,1.350779296875,9.412766456604004,1.8771693706512451,0.12502498924732208
1772883287440369700,1.36736962890625,9.031708717346191,2.072782516479492,0.2386840581893921
1772883287456982800,1.383982666015625,8.874381065368652,2.314457654953003,0.34636107087135315
1772883287473590500,1.400590576171875,8.771489143371582,2.4849462509155273,0.43908295035362244
1772883287490189800,1.41718994140625,8.597412109375,2.616551637649536,0.4983053207397461
1772883287506808000,1.43380810546875,8.36590576171875,2.737389087677002,0.615553617477417
1772883287523374300,1.450374267578125,8.219346046447754,2.846860647201538,0.4833501875400543
1772883287540013300,1.467013427734375,8.11107063293457,2.9898319244384766,0.3846462368965149
1772883287556619800,1.483619873046875,8.455636978149414,3.2141590118408203,0.3361915946006775
1772883287573222400,1.500222412109375,8.970691680908203,3.3475589752197266,0.49232324957847595
1772883287589814300,1.516814208984375,9.291330337524414,3.421138286590576,0.706480860710144
1772883287606434600,1.5334345703125,9.6795654296875,3.4995031356811523,1.043868899345398
1772883287623033000,1.550033203125,10.177870750427246,3.559921979904175,1.3046865463256836
1772883287639643600,1.5666435546875,10.433304786682129,3.504288673400879,1.4081761837005615
1772883287656232400,1.583232421875,10.452447891235352,3.4396824836730957,1.1778669357299805
1772883287672841700,1.599841796875,10.428519248962402,3.3266217708587646,0.9236295223236084
1772883287689442000,1.616442138671875,10.529616355895996,3.290131092071533,0.8512466549873352
1772883287706055400,1.633055419921875,10.460822105407715,3.163909673690796,0.9846464991569519
1772883287722637000,1.649636962890625,10.261619567871094,3.1130621433258057,1.1001001596450806
1772883287739260400,1.666260498046875,10.141380310058594,3.11246395111084,1.0001999139785767
1772883287755870000,1.682869873046875,9.794421195983887,3.153141975402832,0.7776673436164856
1772883287772484400,1.699484375,9.247661590576172,2.9144580364227295,0.5784648656845093
1772883287789108700,1.716108642578125,9.035896301269531,3.1441688537597656,0.3086741268634796
1772883287805692200,1.732692138671875,8.81515884399414,3.5132617950439453,0.5467599630355835
1772883287822302200,1.74930224609375,8.3898344039917,3.5156545639038086,1.4344971179962158
1772883287838904600,1.765904541015625,8.414958953857422,3.490530014038086,2.2133610248565674
1772883287855509500,1.782509521484375,9.45045280456543,3.0005996227264404,2.6249263286590576
1772883287872105000,1.79910498046875,10.572088241577148,2.0859432220458984,2.458625316619873
1772883287888735500,1.815735595703125,11.007582664489746,1.3728820085525513,1.8293129205703735
1772883287905310500,1.832310546875,10.604392051696777,0.8823533654212952,0.9960124492645264
1772883287921917000,1.8489169921875,9.78843879699707,1.0378868579864502,0.2602194547653198
1772883287938532000,1.865531982421875,8.779266357421875,1.4350954294204712,0.05383851006627083
1772883287955149300,1.8821494140625,7.93579626083374,2.0380866527557373,0.12502498924732208
1772883287971745500,1.89874560546875,7.861618995666504,2.462214469909668,0.22432711720466614
1772883287988349200,1.91534912109375,8.578269004821777,2.5405795574188232,0.34995031356811523
1772883288004953900,1.931953857421875,9.259625434875488,2.5603201389312744,0.6376872062683105
1772883288021563000,1.94856298828125,9.240483283996582,2.644068956375122,0.906281590461731
1772883288038166800,1.965166748046875,8.947959899902344,2.754138946533203,1.0857433080673218
1772883288054776000,1.981776123046875,9.176474571228027,2.8043880462646484,1.0612168312072754
1772883288071375000,1.998375,9.565308570861816,2.675773859024048,0.9194421172142029
1772883288087969300,2.01496923828125,9.81535816192627,2.536990165710449,0.7016952633857727
1772883288104566800,2.03156689453125,9.762716293334961,2.4388844966888428,0.36610186100006104
1772883288121191000,2.04819091796875,9.42054271697998,2.4191436767578125,-0.019142581149935722
1772883288137780500,2.064780517578125,9.058030128479004,2.513062000274658,-0.3080759048461914
1772883288154388500,2.081388427734375,8.748757362365723,2.6398816108703613,-0.39182472229003906
1772883288170994000,2.097993896484375,8.47896671295166,2.775076150894165,-0.32721850275993347
1772883288187599400,2.114599365234375,8.315656661987305,2.853440999984741,-0.2105683982372284
1772883288204192500,2.131192626953125,8.35992431640625,2.8145575523376465,-0.06759724020957947
1772883288220799000,2.147799072265625,8.601000785827637,2.7493531703948975,0.01196411345154047
1772883288237414000,2.164413818359375,8.827122688293457,2.7086751461029053,0.03888336941599846
1772883288254036000,2.181035888671875,9.028717994689941,2.6769702434539795,0.09511470049619675
1772883288270620700,2.19762060546875,9.09093189239502,2.724228620529175,0.24287149310112
1772883288287225600,2.2142255859375,8.96949577331543,2.8660032749176025,0.32123643159866333
1772883288303854300,2.230854248046875,8.83370304107666,2.9413771629333496,0.24646073579788208
1772883288320430300,2.247430419921875,8.734400749206543,3.0664021968841553,0.09451649338006973
1772883288337061600,2.2640615234375,8.511868476867676,3.1507492065429688,0.0005982056609354913
1772883288353661400,2.280661376953125,8.414958953857422,3.2446675300598145,0.08315058797597885
1772883288370266000,2.29726611328125,8.59202766418457,3.3589248657226562,0.3798605799674988
1772883288386856200,2.313856201171875,9.09392261505127,3.490530014038086,0.7316055297851562
1772883288403462000,2.3304619140625,9.4061861038208,3.511467218399048,0.9451649188995361
1772883288420075800,2.34707568359375,9.760323524475098,3.5431721210479736,1.0342975854873657
1772883288436688400,2.3636884765625,10.321440696716309,3.6233317852020264,0.7734799385070801
1772883288453291500,2.38029150390625,10.541580200195312,3.57906436920166,0.6239284873008728
1772883288469897000,2.39689697265625,10.813165664672852,3.3954153060913086,0.6113662123680115
1772883288486490600,2.41349072265625,11.302497863769531,3.5306098461151123,0.4995017349720001
1772883288503106300,2.430106201171875,11.20499038696289,3.4235310554504395,0.6143572330474854
1772883288519723800,2.446723876953125,10.911271095275879,3.2955150604248047,0.7154539823532104
1772883288536320300,2.4633203125,10.830513954162598,2.9892337322235107,0.6035895347595215
1772883288552924000,2.479923828125,10.912467956542969,2.17627215385437,0.6017948985099792
1772883288569525800,2.49652587890625,11.414960861206055,1.4865410327911377,0.8045865893363953
1772883288586118700,2.51311865234375,12.049057960510254,0.8470591902732849,0.8249256014823914
1772883288602738200,2.52973828125,12.229716300964355,0.2967100143432617,0.4899304509162903
1772883288619336000,2.5463359375,11.690732955932617,0.05024927482008934,0.06041877344250679
1772883288635937300,2.562937255859375,10.301101684570312,0.1178465187549591,-0.10348957777023315
1772883288652541400,2.57954150390625,8.991629600524902,0.49232324957847595,-0.2225325107574463
1772883288669147400,2.5961474609375,8.256434440612793,0.8350951075553894,-0.4307080805301666
1772883288685753300,2.61275341796875,7.902894973754883,1.046859860420227,-0.45104706287384033
1772883288702356200,2.629356201171875,7.903493404388428,1.3046865463256836,-0.3439682424068451
1772883288718947600,2.645947509765625,8.34138011932373,1.2969099283218384,-0.02153540402650833
1772883288735563300,2.662563232421875,8.900702476501465,1.1904292106628418,0.31405797600746155
1772883288752186600,2.6791865234375,9.178269386291504,1.2496516704559326,0.48035913705825806
1772883288768787700,2.69578759765625,9.229117393493652,1.3405789136886597,0.5383850932121277
1772883288785378800,2.71237890625,9.301499366760254,1.2891331911087036,0.47976094484329224
1772883288801997800,2.728997802734375,9.343972206115723,1.2855439186096191,0.34576287865638733
1772883288818598400,2.745598388671875,9.285347938537598,1.3615161180496216,0.3565305769443512
1772883288835214600,2.762214599609375,9.278169631958008,1.4626128673553467,0.3188436031341553
1772883288851814000,2.77881396484375,9.09272575378418,1.6612170934677124,0.3403790295124054
1772883288868417500,2.79541748046875,8.947361946105957,1.7736797332763672,0.41874396800994873
1772883288885011700,2.81201171875,8.825926780700684,1.9106688499450684,0.5018945336341858
1772883288901636400,2.82863623046875,8.782257080078125,1.9716858863830566,0.550349235534668
1772883288918231800,2.845231689453125,8.719446182250977,1.9854445457458496,0.5694918036460876
1772883288934844400,2.861844482421875,8.819944381713867,2.0518453121185303,0.7417750358581543
1772883288951444200,2.8784443359375,8.973084449768066,2.1236300468444824,0.9613165259361267
1772883288968048600,2.895048583984375,8.952746391296387,2.2366909980773926,1.1395817995071411
1772883288984640500,2.911640625,8.868398666381836,2.417947292327881,1.1509476900100708
1772883289001259000,2.928259033203125,8.894720077514648,2.486740827560425,0.9601200819015503
1772883289017863700,2.94486376953125,8.964112281799316,2.5740790367126465,0.893121063709259
1772883289034474500,2.961474609375,9.218947410583496,2.8241288661956787,1.0564311742782593
1772883289051089000,2.9780888671875,9.561120986938477,3.008376359939575,1.2610175609588623
1772883289067681300,2.994681396484375,9.780662536621094,3.142374277114868,1.495514154434204
1772883289084257000,3.011257080078125,9.756135940551758,3.221935749053955,1.6827524900436401
1772883289100878300,3.02787841796875,9.847063064575195,3.269792079925537,1.801795482635498
1772883289117479400,3.0444794921875,10.226325988769531,3.198007345199585,1.789831280708313
1772883289134084400,3.06108447265625,10.755139350891113,3.060420274734497,1.7330018281936646
1772883289150691800,3.07769189453125,11.08475112915039,2.819941520690918,1.7102699279785156
1772883289167297800,3.0942978515625,10.919646263122559,2.6847469806671143,1.6528422832489014
1772883289183903000,3.110903076171875,10.619945526123047,2.9892337322235107,1.4321043491363525
1772883289200509700,3.127509765625,10.079765319824219,3.2368907928466797,1.456032633781433
1772883289217120000,3.1441201171875,9.958928108215332,3.2650065422058105,1.3519448041915894
1772883289233718300,3.16071826171875,10.162318229675293,3.55214524269104,1.0845468044281006
1772883289250321200,3.177321044921875,9.725028991699219,3.685544967651367,1.1599208116531372
1772883289266945800,3.19394580078125,9.317651748657227,3.5778679847717285,1.534995675086975
1772883289283532300,3.2105322265625,9.482157707214355,3.126222848892212,1.908276081085205
1772883289300152600,3.227152587890625,10.237093925476074,2.4496521949768066,1.970489501953125
1772883289316757000,3.243757080078125,10.720443725585938,1.867598056793213,1.8059829473495483
1772883289333362700,3.26036279296875,10.653444290161133,1.459621787071228,1.339382529258728
1772883289349967000,3.276967041015625,10.130014419555664,1.1928220987319946,1.0247262716293335
1772883289366552600,3.293552490234375,9.506086349487305,1.1892328262329102,0.6741777658462524
1772883289383165200,3.310165283203125,9.148359298706055,1.301695466041565,0.4618147611618042
1772883289399765800,3.326765869140625,9.237491607666016,1.3986048698425293,0.4618147611618042
1772883289416375600,3.34337548828125,9.352347373962402,1.4368900060653687,0.638883650302887
1772883289432993300,3.3599931640625,9.092127799987793,1.6414763927459717,0.9667003750801086
1772883289449597400,3.376597412109375,8.632705688476562,2.0069799423217773,1.2975081205368042
1772883289466203000,3.393202880859375,8.213363647460938,2.2683959007263184,1.5553346872329712
1772883289482788600,3.40978857421875,8.139185905456543,2.406581401824951,1.5804593563079834
1772883289499413200,3.426413330078125,8.516056060791016,2.4394826889038086,1.5308083295822144
1772883289516019200,3.443019287109375,8.85763168334961,2.572882652282715,1.4530415534973145
1772883289532622000,3.4596220703125,8.749356269836426,2.692523717880249,1.3112667798995972
1772883289549230000,3.47622998046875,8.46879768371582,2.7966115474700928,1.1078768968582153
1772883289565833200,3.492833251953125,8.432307243347168,2.827120065689087,0.8165507316589355
1772883289582422000,3.509422119140625,8.423932075500488,2.9306094646453857,0.4875376224517822
1772883289599043800,3.5260439453125,8.285148620605469,3.1214370727539062,0.3320041298866272
1772883289615631400,3.54263134765625,8.287541389465332,3.2273194789886475,0.29431718587875366
1772883289632240400,3.559240478515625,8.512466430664062,3.2763724327087402,0.4223332107067108
1772883289648841500,3.575841552734375,8.861220359802246,3.3882367610931396,0.6604190468788147
1772883289665453300,3.592453369140625,9.181859016418457,3.4337005615234375,0.7692924737930298
1772883289682042600,3.609042724609375,9.2859468460083,3.4779677391052246,0.7878368496894836
1772883289698660900,3.625660888671875,9.016754150390625,3.579662561416626,0.8715856671333313
1772883289715262200,3.64226220703125,8.636893272399902,3.685544967651367,0.8506484627723694
1772883289731874000,3.6588740234375,8.49152946472168,3.7609190940856934,0.8135597109794617
1772883289756781000,3.683781005859375,8.74756145477295,3.817748546600342,0.6454638838768005
1772883289773401000,3.700401123046875,9.129815101623535,3.841676712036133,0.6095715761184692
1772883289790002400,3.71700244140625,9.43609619140625,3.8494534492492676,0.6418746709823608
1772883289806606300,3.7336064453125,9.507282257080078,3.869194269180298,0.6221339106559753
1772883289823212500,3.750212646484375,9.151947975158691,3.914059638977051,0.5431707501411438
1772883289839817700,3.766817626953125,8.891729354858398,4.020540237426758,0.6125625967979431
1772883289856422100,3.783422119140625,8.873184204101562,4.043272018432617,0.7226324677467346
1772883289873027300,3.80002734375,9.189635276794434,4.027120590209961,0.8261220455169678
1772883289889632500,3.816632568359375,9.725028991699219,4.296313285827637,0.7818548083305359
1772883289906237200,3.8332373046875,9.686744689941406,4.329214572906494,0.8350951075553894
1772883289922842600,3.849842529296875,9.709476470947266,4.3070807456970215,0.6293123364448547
1772883289939447300,3.866447265625,9.65803050994873,4.432703971862793,0.3768695592880249
1772883289956052700,3.883052734375,9.347561836242676,4.43330192565918,0.5030909776687622
1772883289972658200,3.899658203125,9.025727272033691,4.393222332000732,0.8871390223503113
1772883289989262800,3.916262939453125,9.199206352233887,4.2000017166137695,1.3010972738265991
1772883290005867300,3.9328671875,10.048060417175293,3.690330743789673,1.550549030303955
1772883290022473500,3.949473388671875,10.806585311889648,3.0107691287994385,1.454836130142212
1772883290039092700,3.9660927734375,10.992627143859863,2.4119651317596436,1.129412293434143
1772883290055682800,3.982682861328125,10.849058151245117,2.049452543258667,0.7926225066184998
1772883290072288500,3.99928857421875,10.14736270904541,1.8957136869430542,0.5467599630355835
1772883290088893200,4.01589306640625,9.22433090209961,2.0315065383911133,0.31345975399017334
1772883290105481200,4.032481201171875,8.45324420928955,2.2540390491485596,0.11904292553663254
1772883290122090000,4.049090087890625,8.24985408782959,2.338984251022339,0.02512463741004467
1772883290138694400,4.0656943359375,8.422137260437012,2.33180570602417,-0.019142581149935722
1772883290155300000,4.082300048828125,8.82233715057373,2.2432711124420166,0.1501496136188507
1772883290171905000,4.098905029296875,9.282955169677734,2.255833625793457,0.4588237404823303
1772883290188510500,4.115510498046875,9.53779125213623,2.289931297302246,0.6771687865257263
1772883290205115000,4.132114990234375,9.42173957824707,2.3647069931030273,0.7262216806411743
1772883290221720600,4.148720458984375,9.065208435058594,2.462214469909668,0.6909275650978088
1772883290238343000,4.165343017578125,8.74756145477295,2.5776681900024414,0.7076773047447205
1772883290254941200,4.181941162109375,8.846264839172363,2.674577474594116,0.6939185857772827
1772883290271549000,4.198548828125,9.204590797424316,2.6979074478149414,0.6963114142417908
1772883290288154600,4.215154541015625,9.381061553955078,2.696112871170044,0.5665007829666138
1772883290304759000,4.231759033203125,9.06281566619873,2.7182464599609375,0.3433700501918793
1772883290321364200,4.2483642578125,8.682356834411621,2.7966115474700928,0.1740778535604477
1772883290337969200,4.26496923828125,8.407182693481445,2.909672260284424,0.06640082597732544
1772883290354574600,4.28157470703125,8.337790489196777,3.0239295959472656,0.06759724020957947
1772883290371180300,4.29818017578125,8.49452018737793,3.111267566680908,0.11545369029045105
1772883290387784400,4.314784423828125,8.796015739440918,3.1561331748962402,0.26201409101486206
1772883290404389400,4.331389404296875,8.953344345092773,3.177070379257202,0.2470589429140091
1772883290420995300,4.347995361328125,8.701499938964844,3.3003005981445312,0.11545369029045105
1772883290437600500,4.3646005859375,8.314460754394531,3.497110366821289,0.07597211748361588
1772883290454204700,4.38120458984375,8.157731056213379,3.6921253204345703,0.025722842663526535
1772883290470809900,4.397809814453125,8.429315567016602,3.7663028240203857,0.12083754688501358
1772883290487415300,4.414415283203125,8.725427627563477,3.802793502807617,0.09990034252405167
1772883290504020000,4.43102001953125,8.982057571411133,3.882354736328125,0.07058826833963394
1772883290520625400,4.44762548828125,9.062217712402344,3.9732820987701416,0.18065811693668365
1772883290537230300,4.464230224609375,8.96112060546875,4.029513359069824,0.20578274130821228
1772883290553835500,4.48083544921875,8.845666885375977,4.094717979431152,0.3074777126312256
1772883290570440700,4.497440673828125,8.726025581359863,4.144368648529053,0.4899304509162903
1772883290587028500,4.514028564453125,9.049057006835938,4.0797624588012695,0.6454638838768005
1772883290603637000,4.530636962890625,9.66102123260498,3.888935089111328,0.7411768436431885
1772883290620242400,4.547242431640625,10.043872833251953,3.6113674640655518,0.6939185857772827
1772883290636847000,4.56384716796875,10.04865837097168,3.555734395980835,0.49710890650749207
1772883290653452300,4.580452392578125,9.65803050994873,3.43190598487854,0.4749752879142761
1772883290670057200,4.59705712890625,9.259625434875488,3.476173162460327,0.41994038224220276
1772883290686663000,4.613662841796875,9.070592880249023,3.5706896781921387,0.30209386348724365
1772883290703267600,4.630267578125,8.866005897521973,3.524627685546875,0.34576287865638733
1772883290719875800,4.646875732421875,8.870193481445312,3.3469607830047607,0.4450650215148926
1772883290736491300,4.6634912109375,8.997611045837402,2.950350284576416,0.5467599630355835
1772883290753097200,4.68009716796875,9.365508079528809,2.536990165710449,0.6993024349212646
1772883290769701400,4.696701416015625,9.942177772521973,2.1649062633514404,0.7028916478157043
1772883290786306800,4.713306884765625,10.381260871887207,1.7341982126235962,0.7495517134666443
1772883290802911200,4.7299111328125,10.596614837646484,1.511067509651184,0.8093722462654114
1772883290819516700,4.7465166015625,10.530214309692383,1.5140584707260132,0.9529415965080261
1772883290836122400,4.763122314453125,10.189835548400879,1.6091731786727905,1.1324033737182617
1772883290852726500,4.7797265625,9.8871431350708,1.8041882514953613,1.4799607992172241
1772883290869332200,4.796332275390625,9.693324089050293,2.080559253692627,1.9232312440872192
1772883290885937400,4.8129375,9.57607650756836,2.348555326461792,2.341975212097168
1772883290902541800,4.829541748046875,9.651450157165527,2.4909284114837646,2.6249263286590576
1772883290919146200,4.846146240234375,9.55753231048584,2.4741785526275635,2.778067111968994
1772883290935761400,4.862761474609375,9.221938133239746,2.4849462509155273,2.785245656967163
1772883290952358000,4.87935791015625,8.991629600524902,2.5118656158447266,2.7050859928131104
1772883290968963000,4.895963134765625,9.001798629760742,2.3748764991760254,2.441277265548706
1772883290985567500,4.9125673828125,9.320642471313477,2.066202402114868,1.9872392416000366
1772883291002172400,4.92917236328125,9.638289451599121,1.7874385118484497,1.4333007335662842
1772883291018778000,4.945778076171875,9.705288887023926,1.6432709693908691,1.0061819553375244
1772883291035383000,4.962383056640625,9.42473030090332,1.7001005411148071,0.7262216806411743
1772883291051988000,4.978988037109375,8.887541770935059,1.9674984216690063,0.6023930907249451
1772883291068593000,4.995593017578125,8.383852005004883,2.2504496574401855,0.5162515044212341
1772883291085181400,5.012181396484375,8.198408126831055,2.4400808811187744,0.4707878530025482
1772883291101789200,5.0287890625,8.278568267822266,2.5124638080596924,0.47557350993156433
1772883291118395100,5.04539501953125,8.379066467285156,2.5232315063476562,0.48454657196998596
1772883291134999300,5.061999267578125,8.597412109375,2.5645077228546143,0.4217349886894226
1772883291151605000,5.07860498046875,8.7505521774292,2.5663022994995117,0.363709032535553
1772883291168218000,5.095218017578125,8.772088050842285,2.6530420780181885,0.31106695532798767
1772883291184814800,5.11181494140625,8.688339233398438,2.743969440460205,0.21176479756832123
1772883291201419800,5.128419677734375,8.519046783447266,2.833700180053711,0.14656038582324982
1772883291218042400,5.14504248046875,8.367700576782227,2.971287488937378,0.11485548317432404
1772883291234643700,5.161643798828125,8.525627136230469,2.991626501083374,0.14775680005550385
1772883291251248600,5.17824853515625,8.9850492477417,2.9593234062194824,0.05383851006627083
1772883291267854000,5.19485400390625,9.479166984558105,2.878565549850464,-0.001794616924598813
1772883291284459000,5.211458984375,9.930811882019043,2.7732813358306885,0.004187439568340778
1772883291301064400,5.228064453125,10.320243835449219,2.705684185028076,0.049651071429252625
1772883291317669400,5.24466943359375,10.65224838256836,2.650649309158325,0.17647066712379456
1772883291334273800,5.261273681640625,10.96750259399414,2.705684185028076,0.2847459018230438
1772883291350879200,5.277879150390625,11.045269012451172,2.8791637420654297,0.24287149310112
1772883291367484700,5.294484619140625,11.070992469787598,3.019144058227539,0.14775680005550385
1772883291384089000,5.311089111328125,11.20798110961914,3.064607620239258,0.03768695518374443
1772883291400694500,5.327694580078125,11.466405868530273,3.057429075241089,0.05503492057323456
1772883291417300200,5.34430029296875,11.856435775756836,2.96111798286438,0.07597211748361588
1772883291433904400,5.360904296875,12.360723495483398,2.602792739868164,0.0849452018737793
1772883291450509600,5.377509521484375,12.847064971923828,1.994417667388916,0.2309073805809021
1772883291467115000,5.394114990234375,12.738789558410645,1.4368900060653687,0.37088751792907715
1772883291483720000,5.410719970703125,12.201601028442383,1.028315544128418,0.48574298620224
1772883291500325400,5.427325439453125,11.895917892456055,0.7992027401924133,0.6149554252624512
1772883291516897300,5.443897216796875,11.884552001953125,0.6083751320838928,0.537188708782196
1772883291533535000,5.460534912109375,11.672188758850098,0.3732803463935852,0.3164508044719696
1772883291550140400,5.477140380859375,10.64387321472168,0.30568310618400574,0.2021935135126114
1772883291566728400,5.493728515625,9.120243072509766,0.638883650302887,0.1698904037475586
1772883291583336700,5.510336669921875,7.883154392242432,1.0510473251342773,0.1944168359041214
1772883291599941600,5.526941650390625,7.204789161682129,1.5026925802230835,0.25423741340637207
1772883291616534500,5.543534423828125,7.186244487762451,1.755135416984558,0.34695929288864136
1772883291633152000,5.560152099609375,7.533802032470703,1.8735800981521606,0.40319061279296875
1772883291649753900,5.57675390625,7.847261905670166,1.9920248985290527,0.34995031356811523
1772883291666365400,5.593365478515625,8.294121742248535,2.1032910346984863,0.22372891008853912
1772883291682967300,5.60996728515625,8.781659126281738,2.11405873298645,0.16869398951530457
1772883291699572200,5.626572265625,9.021539688110352,2.063809633255005,0.12382857501506805
1772883291716195000,5.643195068359375,9.126823425292969,2.0279171466827393,-0.0011964113218709826
1772883291732795600,5.659795654296875,9.380462646484375,2.0207388401031494,0.020937198773026466
1772883291749401000,5.676401123046875,9.77826976776123,1.9866410493850708,0.018544375896453857
1772883291766006800,5.6930068359375,9.851848602294922,1.8921245336532593,-0.01615155301988125
1772883291782611200,5.709611083984375,9.391230583190918,1.8885352611541748,-0.17587246000766754
1772883291799216400,5.72621630859375,8.7505521774292,2.0506489276885986,-0.36729827523231506
1772883291815821800,5.74282177734375,8.394021987915039,2.190629243850708,-0.37866419553756714
1772883291832425500,5.759425537109375,8.533403396606445,2.2091734409332275,-0.1495514214038849
1772883291849057300,5.776057373046875,8.959924697875977,1.9974087476730347,0.03768695518374443
1772883291865637000,5.79263720703125,9.047262191772461,1.9405791759490967,0.050847481936216354
1772883291882241800,5.80924169921875,8.48016357421875,2.063809633255005,0.0023928226437419653
1772883291898847000,5.825846923828125,7.82273530960083,2.3922245502471924,-0.04366901144385338
1772883291915452200,5.8424521484375,7.366902828216553,2.7451658248901367,0.06640082597732544
1772883291932039400,5.859039306640625,7.240681171417236,3.1405797004699707,0.15613168478012085
1772883291948653000,5.875653076171875,7.436892986297607,3.4193434715270996,0.267397940158844
1772883291965268000,5.89226806640625,7.825128078460693,3.666402578353882,0.36729827523231506
1772883291981868300,5.908868408203125,8.431110382080078,3.8015968799591064,0.4893322288990021
1772883291998481200,5.925481201171875,8.999405860900879,3.9116668701171875,0.6209374666213989
1772883292015069700,5.942069580078125,9.33559799194336,3.909274101257324,0.7716853022575378
1772883292031687400,5.9586875,9.537193298339844,3.910470485687256,0.885344386100769
1772883292048276000,5.97527587890625,9.768099784851074,3.864408493041992,0.97926265001297
1772883292064880400,5.99188037109375,10.13479995727539,3.720241069793701,0.97148597240448
1772883292081489400,6.008489501953125,10.688738822937012,3.7369906902313232,0.8536394834518433
1772883292098094300,6.02509423828125,11.086545944213867,3.7022948265075684,0.8799605369567871
1772883292114688300,6.041688232421875,10.905289649963379,3.5778679847717285,0.6550351977348328
1772883292131303200,6.05830322265625,10.778470039367676,3.5330026149749756,0.11964113265275955
1772883292147910700,6.07491064453125,10.926824569702148,3.3852458000183105,-0.3026920557022095
1772883292164514600,6.0915146484375,10.770692825317383,3.260220766067505,-0.42711883783340454
1772883292181119700,6.10811962890625,10.198209762573242,3.2141590118408203,-0.2997010350227356
1772883292197724700,6.124724609375,9.678967475891113,2.9665019512176514,0.059820566326379776
1772883292214347000,6.141346923828125,9.620942115783691,2.585444927215576,0.3924229145050049
1772883292230948400,6.1579482421875,9.80219841003418,2.184048891067505,0.5461617708206177
1772883292247542000,6.1745419921875,10.01575756072998,2.0039889812469482,0.5670989751815796
1772883292264158500,6.191158447265625,10.095916748046875,1.8041882514953613,0.5413761138916016
1772883292280760300,6.20776025390625,10.3016996383667,1.7180466651916504,0.2763710021972656
1772883292297369000,6.224369140625,10.402796745300293,1.695314884185791,0.24227328598499298
1772883292313974000,6.24097412109375,10.141380310058594,1.8969101905822754,0.40319061279296875
1772883292330563300,6.257563232421875,9.477372169494629,2.1655044555664062,0.633499801158905
1772883292347172400,6.27417236328125,8.707481384277344,2.4053850173950195,0.6975077986717224
1772883292363789800,6.290789794921875,8.12662410736084,2.565704107284546,0.8261220455169678
1772883292380394000,6.30739404296875,7.819146156311035,2.6662025451660156,0.9768698215484619
1772883292396999400,6.32399951171875,8.204988479614258,2.5405795574188232,1.0504491329193115
1772883292413604900,6.34060498046875,9.203393936157227,2.3228325843811035,0.8805587291717529
1772883292430192600,6.357192626953125,9.760323524475098,2.163111686706543,0.6897311210632324
1772883292446801700,6.3738017578125,9.808777809143066,2.0829520225524902,0.5784648656845093
1772883292463419400,6.39041943359375,9.043673515319824,2.2438695430755615,0.4217349886894226
1772883292480024800,6.40702490234375,8.093124389648438,2.5938198566436768,0.22851456701755524
1772883292496630000,6.423630126953125,7.467999458312988,2.9150562286376953,-0.06699903309345245
1772883292513235000,6.44023486328125,6.989434719085693,3.1076784133911133,-0.25423741340637207
1772883292529839400,6.45683935546875,6.794419765472412,3.348755359649658,-0.15074782073497772
1772883292546436400,6.473436279296875,7.028916358947754,3.3786656856536865,0.0011964113218709826
1772883292563036400,6.490036376953125,7.792226791381836,3.2853455543518066,0.11605189740657806
1772883292579649300,6.506649169921875,8.51306438446045,3.149552822113037,0.13938191533088684
1772883292596247300,6.523247314453125,8.891130447387695,3.1250264644622803,0.0891326442360878
1772883292612852200,6.539852294921875,8.971290588378906,3.1507492065429688,-0.025722842663526535
1772883292629456600,6.55645654296875,8.845666885375977,3.169891834259033,-0.14416755735874176
1772883292646061800,6.573061767578125,8.862417221069336,3.2853455543518066,-0.17228323221206665
1772883292662666500,6.58966650390625,8.918049812316895,3.4468610286712646,0.014955141581594944
1772883292679272200,6.606272216796875,8.973084449768066,3.576671600341797,0.02512463741004467
1772883292695880200,6.622880126953125,9.091529846191406,3.6406795978546143,-0.017946170642971992
1772883292712492500,6.639492431640625,9.29611587524414,3.671786308288574,-0.052043892443180084
1772883292729103600,6.656103515625,9.669994354248047,3.6747772693634033,0.0364905446767807
1772883292745676800,6.6726767578125,9.851250648498535,3.6819558143615723,0.006580262444913387
1772883292762311000,6.689310791015625,9.822537422180176,3.7094733715057373,0.07896314561367035
1772883292778915800,6.705915771484375,9.857831001281738,3.8871402740478516,0.09451649338006973
1772883292795521000,6.72252099609375,9.695717811584473,4.086941242218018,0.0011964113218709826
1772883292812126500,6.73912646484375,9.522835731506348,3.9828531742095947,-0.3481557071208954
1772883292828731100,6.755731201171875,9.817750930786133,3.762115478515625,-0.5138586759567261
1772883292845336300,6.77233642578125,10.339386940002441,3.500101327896118,-0.5330012440681458
1772883292861941200,6.788941162109375,11.038090705871582,3.263211965560913,-0.4624129831790924
1772883292878546700,6.805546630859375,11.582457542419434,3.087339401245117,-0.45224347710609436
1772883292895151900,6.82215185546875,11.794820785522461,2.758326292037964,-0.3840480446815491
1772883292911756800,6.8387568359375,11.897712707519531,2.4472594261169434,-0.22432711720466614
1772883292928361200,6.855361328125,11.857632637023926,2.2791635990142822,-0.19202402234077454
1772883292944950500,6.871950439453125,11.663813591003418,1.9830517768859863,0.06999006122350693
1772883292961556500,6.888556396484375,11.644073486328125,1.7910277843475342,0.13100704550743103
1772883292978176800,6.9051767578125,11.687742233276367,1.5086746215820312,0.16689938306808472
1772883292994782000,6.921781982421875,11.48076343536377,1.3154542446136475,0.14715859293937683
1772883293011387400,6.938387451171875,10.481760025024414,1.4452649354934692,-0.07058826833963394
1772883293027992000,6.954991943359375,9.144769668579102,1.6869399547576904,-0.4055834412574768
1772883293044580000,6.971580078125,8.297710418701172,1.8801604509353638,-0.6005984544754028
1772883293061188400,6.988188232421875,8.057231903076172,1.9824535846710205,-0.5312066078186035
1772883293077794000,7.0047939453125,8.25703239440918,2.093719720840454,-0.388235479593277
1772883293094399200,7.021399169921875,8.599804878234863,2.2067806720733643,-0.29850462079048157
1772883293110992400,7.037992431640625,8.725427627563477,2.1409780979156494,-0.33798620104789734
1772883293127608600,7.054608642578125,8.6907320022583,2.184048891067505,-0.34695929288864136
1772883293144214300,7.07121435546875,8.938986778259277,2.2061824798583984,-0.39601215720176697
1772883293160819200,7.087819091796875,9.002396583557129,2.1535403728485107,-0.3152543902397156
1772883293177424400,7.10442431640625,8.887541770935059,2.213959217071533,-0.21415762603282928
1772883293194046200,7.121046142578125,8.916254997253418,2.241476535797119,-0.05623133108019829
1772883293210648300,7.1376484375,9.081958770751953,2.348555326461792,-0.037088751792907715
1772883293227252700,7.154252685546875,8.860024452209473,2.4185454845428467,-0.16929219663143158
1772883293243868200,7.1708681640625,8.444869041442871,2.5399811267852783,-0.3188436031341553
1772883293260462800,7.187462890625,8.1553373336792,2.6799614429473877,-0.2590230405330658
1772883293277069000,7.204069091796875,8.298309326171875,2.771486759185791,-0.13459627330303192
1772883293293673700,7.220673828125,8.513663291931152,2.7637102603912354,-0.10707881301641464
1772883293310277400,7.23727734375,8.417351722717285,2.8247270584106445,-0.06340979784727097
1772883293326884400,7.25388427734375,8.319246292114258,2.9623143672943115,-0.023330021649599075
1772883293343491600,7.27049169921875,8.312665939331055,3.0628130435943604,-0.02751746028661728
1772883293360093700,7.28709375,8.382058143615723,3.1405797004699707,-0.1417747437953949
1772883293376699000,7.303698974609375,8.376673698425293,3.2069804668426514,-0.07956135272979736
1772883293393303600,7.320303466796875,8.37428092956543,3.387638568878174,0.08434699475765228
1772883293409909000,7.336908935546875,8.400602340698242,3.5306098461151123,0.1860419660806656
1772883293426514200,7.35351416015625,8.49452018737793,3.5994033813476562,0.07597211748361588
1772883293443102500,7.3701025390625,8.786444664001465,3.541975736618042,-0.10767702013254166
1772883293459724500,7.386724609375,9.132805824279785,3.445664644241333,-0.12023933976888657
1772883293476330000,7.403330078125,9.142974853515625,3.463012456893921,0.07597211748361588
1772883293492934400,7.419934326171875,9.400801658630371,3.658625841140747,0.5066801905632019
1772883293509539300,7.436539306640625,9.985847473144531,3.606581926345825,0.5982056856155396
1772883293526127600,7.453127685546875,10.699506759643555,3.5294134616851807,0.48394837975502014
1772883293542724000,7.46972412109375,10.99143123626709,3.696911096572876,0.24885354936122894
1772883293559341000,7.486341064453125,10.448858261108398,3.810570001602173,0.28175488114356995
1772883293575946200,7.5029462890625,10.009177207946777,3.988237142562866,0.1657029688358307
1772883293592551000,7.519551025390625,9.827920913696289,4.202394962310791,0.08255238085985184
1772883293609156600,7.536156494140625,9.569496154785156,4.058825492858887,0.3840480446815491
1772883293625761000,7.552760986328125,9.53061294555664,3.6771702766418457,0.7166503667831421
1772883293642366500,7.569366455078125,9.887741088867188,3.104687452316284,0.9780662655830383
1772883293658971400,7.585971435546875,10.208379745483398,2.38983154296875,1.095314621925354
1772883293675576800,7.602576904296875,10.054640769958496,1.9567307233810425,1.1982059478759766
1772883293692199200,7.61919921875,9.66520881652832,1.719243049621582,0.9882357716560364
1772883293708800000,7.635800048828125,9.213563919067383,1.6839489936828613,0.6364908218383789
1772883293725405400,7.652405517578125,9.000602722167969,1.7270197868347168,0.32243284583091736
1772883293741984300,7.668984375,9.175278663635254,1.7593228816986084,0.11126625537872314
1772883293758611700,7.68561181640625,9.29312515258789,1.908276081085205,0.22133609652519226
1772883293775225000,7.70222509765625,9.20279598236084,2.2205393314361572,0.5258227586746216
1772883293791809000,7.71880908203125,9.043074607849121,2.404188632965088,0.7381857633590698
1772883293808430800,7.735430908203125,8.837890625,2.6081767082214355,0.6741777658462524
1772883293825035800,7.752035888671875,8.74038314819336,2.693121910095215,0.6562315821647644
1772883293841666300,7.768666259765625,9.074779510498047,2.743969440460205,0.7405785918235779
1772883293858250500,7.78525048828125,9.723833084106445,2.681756019592285,1.0474581718444824
1772883293874847000,7.801846923828125,10.212567329406738,2.700300455093384,1.179063320159912
1772883293891456000,7.8184560546875,10.312467575073242,2.692523717880249,1.1018948554992676
1772883293908061000,7.83506103515625,9.93260669708252,2.6907291412353516,0.7597211599349976
1772883293924659200,7.8516591796875,9.306883811950684,2.754138946533203,0.3762713670730591
1772883293941278200,7.8682783203125,8.785248756408691,2.8899314403533936,0.064606212079525
1772883293957876500,7.88487646484375,8.529216766357422,3.0311081409454346,0.04307080805301666
1772883293974481700,7.901481689453125,8.485547065734863,3.091526746749878,0.14416755735874176
1772883293991086300,7.91808642578125,8.525029182434082,3.0251259803771973,0.14835500717163086
1772883294007691800,7.93469189453125,8.681758880615234,2.89172625541687,0.2847459018230438
1772883294024279600,7.951279541015625,8.820542335510254,2.916252613067627,0.39421752095222473
1772883294040888000,7.96788818359375,8.616554260253906,2.978466033935547,0.12323036789894104
1772883294057493200,7.9844931640625,8.603992462158203,2.9724838733673096,-0.32123643159866333
1772883294074098700,8.0010986328125,8.511270523071289,3.002394199371338,-0.5934200286865234
1772883294090703400,8.017703369140625,8.301898002624512,3.2004003524780273,-0.519242525100708
1772883294107308500,8.03430859375,8.09252643585205,3.4648072719573975,-0.3200400173664093
1772883294123913200,8.050913330078124,8.042875289916992,3.5880374908447266,-0.28534409403800964
1772883294140518700,8.0675185546875,8.25703239440918,3.5916268825531006,-0.4055834412574768
1772883294157123600,8.08412353515625,8.489734649658203,3.624528169631958,-0.5982056856155396
1772883294173729000,8.10072900390625,8.7176513671875,3.704089403152466,-0.6801598072052002
1772883294190350600,8.1173505859375,8.912068367004395,3.745365619659424,-0.7956135272979736
1772883294206953000,8.133952880859376,9.030512809753418,3.7806596755981445,-0.8823533654212952
1772883294223557400,8.150557373046874,9.280562400817871,3.669393539428711,-0.9613165259361267
1772883294240146400,8.167146484375,9.756733894348145,3.3194432258605957,-0.8757730722427368
1772883294256767500,8.183767578125,10.101301193237305,3.5300116539001465,-1.0001999139785767
1772883294273373400,8.20037353515625,10.081560134887695,3.624528169631958,-0.8560323119163513
1772883294289977900,8.216977783203125,10.923833847045898,3.4121651649475098,-0.6897311210632324
1772883294306587000,8.2335869140625,11.57827091217041,3.4342987537384033,-0.784247636795044
1772883294323187500,8.2501875,11.632108688354492,3.4097721576690674,-0.6747759580612183
1772883294339777000,8.266777099609374,11.795419692993164,3.246462106704712,-0.34695929288864136
1772883294356398000,8.283398193359375,12.680763244628906,2.8695926666259766,0.05144568532705307
1772883294373003300,8.300003173828125,13.305290222167969,2.352144718170166,0.4127618968486786
1772883294389608700,8.316608642578124,13.25264835357666,2.1026928424835205,0.4301098585128784
1772883294406213400,8.33321337890625,12.991830825805664,1.731805443763733,0.39062830805778503
1772883294422818300,8.349818359375,12.593425750732422,1.4889339208602905,0.2667997181415558
1772883294439423700,8.366423828125,11.781062126159668,1.404586911201477,0.16091732680797577
1772883294456028400,8.3830283203125,10.411170959472656,1.4051851034164429,0.0011964113218709826
1772883294472633900,8.3996337890625,8.937192916870117,1.6115660667419434,-0.2183450609445572
1772883294489238800,8.41623876953125,7.665407180786133,2.0099709033966064,-0.34695929288864136
1772883294505826800,8.432826904296874,6.965506553649902,2.2438695430755615,-0.5569294691085815
1772883294522435000,8.44943505859375,7.1856465339660645,2.241476535797119,-0.5868397355079651
1772883294539028700,8.46602880859375,7.752147197723389,2.1750757694244385,-0.4899304509162903
1772883294555631000,8.482631103515626,7.8179497718811035,2.237887382507324,-0.50907301902771
1772883294572251000,8.4992509765625,7.633702278137207,2.3186452388763428,-0.641276478767395
1772883294588852200,8.515852294921874,7.8664045333862305,2.4023938179016113,-0.6753742098808289
1772883294605464000,8.532464111328125,7.941778182983398,2.4472594261169434,-0.7423732280731201
1772883294622065700,8.549065673828125,7.963313579559326,2.5806591510772705,-0.6747759580612183
1772883294638660400,8.565660400390625,8.172685623168945,2.6967110633850098,-0.5126622319221497
1772883294655275800,8.58227587890625,8.469395637512207,2.737389087677002,-0.39900317788124084
1772883294671884500,8.598884521484376,8.791230201721191,2.650649309158325,-0.4875376224517822
1772883294688499500,8.61549951171875,8.74756145477295,2.6273193359375,-0.6693921089172363
1772883294705088000,8.632087890625,8.418548583984375,2.7774689197540283,-0.7238288521766663
1772883294721709600,8.64870947265625,8.380263328552246,2.9180471897125244,-0.38285163044929504
1772883294738280700,8.66528076171875,8.873783111572266,2.9730820655822754,-0.040677983313798904
1772883294754920000,8.681919921875,9.159127235412598,2.86061954498291,0.05742774158716202
1772883294771525000,8.698525146484375,9.299705505371094,2.7523441314697266,-0.001794616924598813
1772883294788129800,8.7151298828125,9.309874534606934,2.6763720512390137,-0.08374879509210587
1772883294804737500,8.731737548828125,8.895318031311035,2.8767709732055664,0.020338991656899452
1772883294821340400,8.74834033203125,8.161917686462402,3.2644083499908447,0.23330020904541016
1772883294837929000,8.764928955078124,7.971688747406006,3.477369546890259,0.3122633695602417
1772883294854550800,8.78155078125,8.196015357971191,3.5647075176239014,0.43609192967414856
1772883294871151600,8.798151611328125,8.652446746826172,3.741776466369629,0.49710890650749207
1772883294887760400,8.814760498046875,8.879764556884766,3.8775691986083984,0.5587241053581238
1772883294904365600,8.831365478515625,8.880961418151855,4.078566074371338,0.5748756527900696
1772883294920970500,8.847970458984374,9.004789352416992,4.19282341003418,0.7998009920120239
1772883294937563000,8.86456298828125,8.894122123718262,4.318446636199951,1.0977073907852173
1772883294954180600,8.8811806640625,9.040681838989258,4.18983268737793,1.2011969089508057
1772883294970785800,8.897785888671875,9.984650611877441,3.8464624881744385,1.0977073907852173
1772883294987390500,8.914390380859375,10.890334129333496,3.47019100189209,0.9750752449035645
1772883295003979300,8.930979248046874,11.11167049407959,3.607778310775757,0.7884350419044495
1772883295020587500,8.94758740234375,10.802397727966309,3.809373617172241,0.9158528447151184
1772883295037173200,8.96417333984375,10.710872650146484,3.8745779991149902,1.0079765319824219
1772883295053797000,8.980797119140625,10.070194244384766,4.1593241691589355,0.4061816334724426
1772883295070403800,8.99740380859375,9.397212982177734,4.231108665466309,0.16151553392410278
1772883295087007700,9.0140078125,9.787840843200684,4.067798614501953,0.1339980661869049
1772883295103613000,9.030613037109376,10.708479881286621,3.276970624923706,0.3577269911766052
1772883295120217600,9.047217529296875,10.792228698730469,2.678765058517456,0.4384847581386566
1772883295136823300,9.0638232421875,10.587043762207031,2.365903377532959,0.4139583110809326
1772883295153425000,9.0804248046875,10.309475898742676,2.0715861320495605,0.3032902777194977
1772883295170053600,9.0970537109375,10.054640769958496,2.066202402114868,0.06999006122350693
1772883295186651600,9.113651611328125,9.705886840820312,1.9405791759490967,-0.24945175647735596
1772883295203240700,9.13024072265625,9.360123634338379,1.8963119983673096,-0.5826523303985596
1772883295219878700,9.146878662109375,9.0514497756958,2.256431818008423,-0.5587241053581238
1772883295236453600,9.16345361328125,8.791230201721191,2.5094728469848633,-0.19202402234077454
1772883295253072400,9.180072265625,8.806783676147461,2.620140790939331,0.349352091550827
1772883295269677600,9.196677490234375,8.769695281982422,2.7631118297576904,0.9290133714675903
1772883295286282200,9.2132822265625,8.620741844177246,2.748156785964966,0.786640465259552
1772883295302871000,9.22987109375,8.542975425720215,2.6596224308013916,0.3846462368965149
1772883295319487200,9.2464873046875,8.567501068115234,2.5334010124206543,0.0771685317158699
1772883295336114200,9.2631142578125,8.861220359802246,2.510669231414795,0.30987054109573364
1772883295352703000,9.279702880859375,9.000003814697266,2.6195425987243652,0.6448656916618347
1772883295369307600,9.2963076171875,8.562117576599121,2.871387243270874,0.2757728099822998
1772883295385912000,9.312912109375,7.471588611602783,3.1417760848999023,-0.3188436031341553
1772883295402507800,9.3295078125,6.9720869064331055,3.1483564376831055,-0.5742774605751038
1772883295419106600,9.3461064453125,6.613163471221924,3.3846476078033447,-0.6705885529518127
1772883295435713300,9.36271337890625,7.040282249450684,3.4103705883026123,-0.3762713670730591
1772883295452333300,9.379333251953126,7.752745151519775,3.3535408973693848,-0.6245267391204834
