time,seconds_elapsed,z,y,x
1772883286182527000,0.10952685546875,-0.22892175614833832,0.040164388716220856,-0.11881329119205475
1772883286199163400,0.126163330078125,-0.2321287989616394,0.08491026610136032,-0.15363261103630066
1772883286215764700,0.1427646484375,-0.3251330256462097,-0.15012013912200928,-0.18570303916931152
1772883286232366000,0.159365966796875,-0.3452915847301483,-0.28206703066825867,-0.21135938167572021
1772883286248966400,0.17596630859375,-0.31780263781547546,-0.33689218759536743,-0.2623666226863861
1772883286265581600,0.19258154296875,-0.275958389043808,-0.38728857040405273,-0.30573806166648865
1772883286282181000,0.20918115234375,-0.18310685455799103,-0.347276896238327,-0.3280346393585205
1772883286298785300,0.225785400390625,-0.0607810914516449,-0.23197607696056366,-0.3995058834552765
1772883286315392500,0.242392578125,0.06658431142568588,-0.02825251780450344,-0.432034432888031
1772883286331997000,0.258996826171875,0.17898350954055786,0.13240504264831543,-0.33139440417289734
1772883286348600000,0.27560009765625,0.24678955972194672,0.1598939746618271,-0.19654589891433716
1772883286365207800,0.292207763671875,0.2929098904132843,0.14248432219028473,-0.1010981947183609
1772883286381812700,0.308812744140625,0.29917123913764954,0.08949175477027893,-0.07131851464509964
1772883286398415600,0.32541552734375,0.2828305959701538,0.0065668015740811825,-0.047189339995384216
1772883286415023400,0.3420234375,0.2747366428375244,-0.058948494493961334,0.04245513305068016
1772883286431626500,0.35862646484375,0.27259862422943115,-0.14156801998615265,0.17928895354270935
1772883286448204000,0.3752041015625,0.2480112910270691,-0.24342979490756989,0.308792382478714
1772883286464839000,0.3918388671875,0.2177734673023224,-0.2814561724662781,0.38026362657546997
1772883286481441800,0.40844189453125,0.18066339194774628,-0.24495697021484375,0.3631593883037567
1772883286498046000,0.4250458984375,0.11881329119205475,-0.1437060534954071,0.294437050819397
1772883286514653700,0.44165380859375,0.02519819140434265,-0.09926560521125793,0.1791362315416336
1772883286531256600,0.458256591796875,-0.09056077152490616,-0.04886921867728233,0.06261368840932846
1772883286547864600,0.474864501953125,-0.16462817788124084,0.06429356336593628,-0.020922135561704636
1772883286564468700,0.49146875,-0.17806722223758698,0.206777885556221,-0.08704829961061478
1772883286581076500,0.508076416015625,-0.17058411240577698,0.2545780837535858,-0.1411098688840866
1772883286597678800,0.524678955078125,-0.11927144229412079,0.25014930963516235,-0.15806138515472412
1772883286614283000,0.541282958984375,-0.06169738993048668,0.1062905490398407,-0.17272214591503143
1772883286630887400,0.557887451171875,-0.02229658141732216,-0.06154467165470123,-0.18249599635601044
1772883286647493000,0.5744931640625,-0.005650503560900688,-0.15241087973117828,-0.19135354459285736
1772883286664094500,0.591094482421875,-0.04138612002134323,-0.17898350954055786,-0.19135354459285736
1772883286680689200,0.607689208984375,-0.1235474944114685,-0.156686931848526,-0.19120082259178162
1772883286697295000,0.624295166015625,-0.18127426505088806,-0.1586722433567047,-0.2165517359972
1772883286713900800,0.64090087890625,-0.19135354459285736,-0.12339477986097336,-0.2506074607372284
1772883286730503700,0.657503662109375,-0.18768835067749023,-0.07483099400997162,-0.28527405858039856
1772883286747119900,0.674119873046875,-0.19746218621730804,-0.044135015457868576,-0.31154128909111023
1772883286763715800,0.6907158203125,-0.21960605680942535,-0.029168816283345222,-0.313373863697052
1772883286780335400,0.70733544921875,-0.23121249675750732,0.013897184282541275,-0.26893341541290283
1772883286796940000,0.72393994140625,-0.2431243658065796,-0.016798794269561768,-0.2021963894367218
1772883286813541600,0.740541748046875,-0.25076019763946533,0.016035212203860283,-0.10735956579446793
1772883286830148600,0.757148681640625,-0.2376265823841095,0.12782354652881622,-0.018325956538319588
1772883286855067000,0.78206689453125,-0.19822576642036438,0.2102903574705124,0.0027488935738801956
1772883286871645700,0.798645751953125,-0.17150041460990906,0.15454891324043274,-0.03191770985722542
1772883286888251100,0.815251220703125,-0.1511891484260559,0.14034628868103027,0.03375030308961868
1772883286904868900,0.831868896484375,-0.12950342893600464,0.1368338167667389,0.13607023656368256
1772883286921476900,0.848476806640625,-0.12767083942890167,0.11545353382825851,0.1771509200334549
1772883286938091300,0.86509130859375,-0.1339322030544281,0.044287730008363724,0.13897185027599335
1772883286954687200,0.881687255859375,-0.11789698898792267,-0.10308351367712021,0.076052725315094
1772883286971282700,0.89828271484375,-0.0705549344420433,-0.20799961686134338,0.11820242553949356
1772883286987899400,0.9148994140625,0.04108068719506264,-0.12003502249717712,0.2541199326515198
1772883287004497400,0.931497314453125,0.14935655891895294,-0.0019853119738399982,0.2997821271419525
1772883287021095000,0.948094970703125,0.2151772826910019,0.15225815773010254,0.23945917189121246
1772883287037717200,0.96471728515625,0.26450464129447937,0.31642818450927734,0.1466076523065567
1772883287054302000,0.981302001953125,0.2710714638233185,0.28466320037841797,-0.02382374368607998
1772883287070908700,0.99790869140625,0.21762074530124664,0.09972374886274338,-0.23136521875858307
1772883287087510000,1.014510009765625,0.11178833991289139,-0.18188512325286865,-0.39904773235321045
1772883287104154000,1.031154052734375,0.013286318629980087,-0.3165809214115143,-0.4534147381782532
1772883287120733700,1.047733642578125,-0.021838432177901268,-0.2860376536846161,-0.3599523603916168
1772883287137347300,1.064347412109375,0.03222314268350601,-0.17043140530586243,-0.1437060534954071
1772883287153929700,1.0809296875,0.1866193264722824,0.1420261710882187,0.17547103762626648
1772883287170537000,1.097536865234375,0.3478877544403076,0.470060795545578,0.42959097027778625
1772883287187145700,1.114145751953125,0.43478333950042725,0.5114469528198242,0.48426342010498047
1772883287203753000,1.1307529296875,0.4528038501739502,0.3309362530708313,0.4489859640598297
1772883287220350500,1.1473505859375,0.42470407485961914,0.08827003091573715,0.422871470451355
1772883287236966400,1.16396630859375,0.3952298164367676,-0.09269879758358002,0.3943135142326355
1772883287253563400,1.1805634765625,0.3854559659957886,-0.13225232064723969,0.34437528252601624
1772883287270200000,1.197199951171875,0.36621370911598206,-0.1508837193250656,0.25182920694351196
1772883287286770200,1.213770263671875,0.3387247920036316,-0.16111570596694946,0.14248432219028473
1772883287303393800,1.230393798828125,0.3124575614929199,-0.08552113175392151,0.07223481684923172
1772883287319995600,1.24699560546875,0.3113885521888733,0.016035212203860283,0.012980886735022068
1772883287336601000,1.26360107421875,0.31749722361564636,0.0065668015740811825,-0.05650503560900688
1772883287353197300,1.280197265625,0.34177911281585693,-0.048258353024721146,-0.11453723162412643
1772883287369802500,1.296802490234375,0.3300199508666992,-0.05849034711718559,-0.15256360173225403
1772883287386406000,1.313406005859375,0.30115658044815063,0.014355333521962166,-0.156686931848526
1772883287403011600,1.330011474609375,0.2981022298336029,0.0861319974064827,-0.13820825517177582
1772883287419606000,1.34660595703125,0.3315471112728119,0.16340644657611847,-0.07208210229873657
1772883287436217600,1.363217529296875,0.35323283076286316,0.17501288652420044,-0.019547687843441963
1772883287452824800,1.379824951171875,0.3546072840690613,0.12660181522369385,-0.019853120669722557
1772883287469447200,1.396447265625,0.33108896017074585,0.09346238523721695,-0.007941247895359993
1772883287486048000,1.413048095703125,0.2906191349029541,0.0861319974064827,0.003054326167330146
1772883287502655200,1.4296552734375,0.24617868661880493,0.15760323405265808,-0.01038470957428217
1772883287519258400,1.44625830078125,0.19196440279483795,0.25702154636383057,-0.04764748737215996
1772883287535872300,1.462872314453125,0.15806138515472412,0.3055853247642517,-0.07223481684923172
1772883287552468200,1.47946826171875,0.14095716178417206,0.18829920887947083,-0.08460483700037003
1772883287569077000,1.496076904296875,0.10766500234603882,-0.07925976812839508,-0.03573561832308769
1772883287585676800,1.5126767578125,0.05513058975338936,-0.2893974184989929,0.03084869496524334
1772883287602287900,1.529287841796875,0.007788531947880983,-0.4060726761817932,0.033597588539123535
1772883287618885600,1.5458857421875,-0.06673702597618103,-0.4004221558570862,-0.007177666760981083
1772883287635497200,1.562497314453125,-0.156686931848526,-0.25473082065582275,-0.021380282938480377
1772883287652082400,1.57908251953125,-0.23258693516254425,-0.07956519722938538,-0.022907447069883347
1772883287668691000,1.59569091796875,-0.2617557644844055,-0.021991148591041565,-0.02321287989616394
1772883287685284000,1.6122841796875,-0.25534167885780334,-0.02932153269648552,-0.0012217304902151227
1772883287701903000,1.628903076171875,-0.2480112910270691,-0.0328340083360672,0.05955936014652252
1772883287718500900,1.6455009765625,-0.24297164380550385,0.013744467869400978,0.1319468915462494
1772883287735124700,1.662124755859375,-0.25366178154945374,0.02275473065674305,0.23579397797584534
1772883287751714000,1.678714111328125,-0.25931230187416077,0.05971207842230797,0.38988474011421204
1772883287768337400,1.69533740234375,-0.2344195395708084,0.024587325751781464,0.5102251768112183
1772883287784946400,1.711946533203125,-0.17302757501602173,-0.0988074541091919,0.5361869931221008
1772883287801539800,1.728539794921875,-0.10613783448934555,-0.1437060534954071,0.4944954216480255
1772883287818152400,1.74515234375,-0.11453723162412643,-0.21853704750537872,0.3318525552749634
1772883287834756600,1.761756591796875,-0.25076019763946533,-0.41813725233078003,-0.018020525574684143
1772883287851356700,1.778356689453125,-0.49296826124191284,-0.60429847240448,-0.4317290186882019
1772883287867965000,1.79496484375,-0.7400632500648499,-0.5619960427284241,-0.693026602268219
1772883287884577300,1.811577392578125,-0.8579602241516113,-0.14034628868103027,-0.722959041595459
1772883287901167400,1.82816748046875,-0.799011766910553,0.44486260414123535,-0.5884159207344055
1772883287917782500,1.844782470703125,-0.6105598211288452,0.8523097038269043,-0.36453384160995483
1772883287934390500,1.861390625,-0.40591996908187866,1.0134254693984985,-0.13530665636062622
1772883287950977000,1.87797705078125,-0.2557998299598694,0.9398161768913269,-0.016951510682702065
1772883287967594800,1.8945947265625,-0.20601430535316467,0.5719226002693176,-0.009773843921720982
1772883287984202200,1.9112021484375,-0.22540926933288574,-0.005955935921519995,0.019853120669722557
1772883288000806700,1.927806640625,-0.2451096773147583,-0.43615779280662537,0.1560760736465454
1772883288017410800,1.944410888671875,-0.2587014436721802,-0.5305364727973938,0.28298333287239075
1772883288034018000,1.96101806640625,-0.28695395588874817,-0.4631885588169098,0.23854288458824158
1772883288050622200,1.977622314453125,-0.33429601788520813,-0.3715587854385376,0.030695978552103043
1772883288067225600,1.9942255859375,-0.36483925580978394,-0.21319197118282318,-0.1621847152709961
1772883288083829500,2.01082958984375,-0.3623957931995392,0.0003054326225537807,-0.27091872692108154
1772883288100436000,2.02743603515625,-0.33200526237487793,0.22327125072479248,-0.2958115041255951
1772883288117046500,2.044046630859375,-0.2695443034172058,0.4021020531654358,-0.26801711320877075
1772883288133642500,2.060642578125,-0.1699732542037964,0.4486805200576782,-0.22663100063800812
1772883288150226400,2.077226318359375,-0.06322455406188965,0.38576140999794006,-0.17211128771305084
1772883288166844200,2.09384423828125,0.0328340083360672,0.2871066629886627,-0.1235474944114685
1772883288183449300,2.110449462890625,0.10415252298116684,0.18157969415187836,-0.11575896292924881
1772883288200051200,2.12705126953125,0.16019940376281738,0.09178250283002853,-0.15454891324043274
1772883288216658400,2.143658447265625,0.204487144947052,0.03588833287358284,-0.1992947906255722
1772883288233267000,2.160266845703125,0.25305092334747314,0.005650503560900688,-0.20631973445415497
1772883288249860000,2.176860107421875,0.3016147017478943,0.004886921960860491,-0.18341228365898132
1772883288266484200,2.193484130859375,0.35521814227104187,0.057879481464624405,-0.1186605766415596
1772883288283096000,2.210095947265625,0.38377609848976135,0.1466076523065567,-0.038026362657547
1772883288299702500,2.22670263671875,0.3880521357059479,0.15729780495166779,0.012522737495601177
1772883288316296200,2.243296142578125,0.3903428912162781,0.09865473955869675,0.0607810914516449
1772883288332913200,2.2599130859375,0.39996400475502014,0.02825251780450344,0.08933904021978378
1772883288349494500,2.27649462890625,0.43829581141471863,-0.018325956538319588,0.06994406878948212
1772883288366104600,2.2931044921875,0.4812090992927551,-0.05757404863834381,0.026114489883184433
1772883288382718200,2.30971826171875,0.48059824109077454,-0.11071932315826416,0.008704829961061478
1772883288399327000,2.326326904296875,0.4363104999065399,-0.17440202832221985,0.06154467165470123
1772883288415935000,2.34293505859375,0.3695734739303589,-0.2750420868396759,0.10323622822761536
1772883288432539100,2.3595390625,0.3029891550540924,-0.3591887652873993,0.11255192011594772
1772883288449142300,2.376142333984375,0.285121351480484,-0.26481008529663086,0.11835514008998871
1772883288465750500,2.39275048828125,0.2981022298336029,-0.16294831037521362,0.059864792972803116
1772883288482348500,2.4093486328125,0.3098613917827606,-0.06658431142568588,-0.012522737495601177
1772883288498961200,2.425961181640625,0.32391130924224854,0.11255192011594772,-0.023365596309304237
1772883288515566300,2.44256640625,0.2941316068172455,0.11026117950677872,-0.07712173461914062
1772883288532165000,2.4591650390625,0.2197587788105011,-0.027947084978222847,-0.19318613409996033
1772883288548763000,2.475762939453125,0.16294831037521362,-0.16432274878025055,-0.33307427167892456
1772883288565379600,2.492379638671875,0.14309518039226532,-0.31749722361564636,-0.4593706727027893
1772883288581979400,2.5089794921875,0.11820242553949356,-0.4118759036064148,-0.48716503381729126
1772883288598591200,2.52559130859375,0.13759739696979523,-0.3072652220726013,-0.35750889778137207
1772883288615193300,2.542193359375,0.2561052441596985,-0.01572977937757969,-0.08460483700037003
1772883288631784200,2.5587841796875,0.4332561790943146,0.36850446462631226,0.22846360504627228
1772883288648378400,2.57537841796875,0.5658139586448669,0.6239988207817078,0.4011857509613037
1772883288664996900,2.591996826171875,0.6429356932640076,0.5694791078567505,0.42668938636779785
1772883288681587700,2.608587646484375,0.6829473376274109,0.32039880752563477,0.4056145250797272
1772883288698204400,2.625204345703125,0.6982190012931824,0.06398813426494598,0.33460143208503723
1772883288714814200,2.641814208984375,0.6722571849822998,-0.18616119027137756,0.19013181328773499
1772883288731420400,2.65842041015625,0.6249151229858398,-0.24648413062095642,0.056810468435287476
1772883288748010500,2.675010498046875,0.5754350423812866,-0.15424346923828125,-0.010231993161141872
1772883288764640800,2.691640869140625,0.5090034604072571,-0.1082758679986,-0.059406645596027374
1772883288781240000,2.708239990234375,0.43936482071876526,-0.13408492505550385,-0.10155634582042694
1772883288797856300,2.724856201171875,0.3882048726081848,-0.14263702929019928,-0.1267545372247696
1772883288814454800,2.741454833984375,0.3660610020160675,-0.11239920556545258,-0.164170041680336
1772883288831063800,2.758063720703125,0.36713001132011414,-0.023060163483023643,-0.1892155110836029
1772883288847657200,2.7746572265625,0.3767511546611786,0.08292495459318161,-0.17730364203453064
1772883288864270600,2.7912705078125,0.3680463135242462,0.11560624837875366,-0.17180584371089935
1772883288880870000,2.807869873046875,0.3510948121547699,0.10583240538835526,-0.15760323405265808
1772883288897469400,2.824469482421875,0.33276882767677307,0.055894169956445694,-0.13775011897087097
1772883288914094600,2.841094482421875,0.31841349601745605,-0.013591751456260681,-0.11316278576850891
1772883288930689300,2.857689208984375,0.3116939961910248,-0.09254608303308487,-0.08338310569524765
1772883288947278300,2.8742783203125,0.27947086095809937,-0.11621711403131485,-0.0354301854968071
1772883288963926500,2.890926513671875,0.23273965716362,-0.051770828664302826,0.028099801391363144
1772883288980501000,2.9075009765625,0.16554448008537292,0.003512475173920393,0.06352998316287994
1772883288997101600,2.9241015625,0.10720685124397278,-0.0019853119738399982,0.0679587572813034
1772883289013714400,2.94071435546875,0.08231408894062042,-0.02626720629632473,0.08384125679731369
1772883289030319400,2.9573193359375,0.06841690838336945,-0.076052725315094,0.1059851199388504
1772883289046929700,2.9739296875,0.02321287989616394,-0.12782354652881622,0.1472185254096985
1772883289063526400,2.9905263671875,-0.04688390716910362,-0.20005837082862854,0.20815233886241913
1772883289080142000,3.00714208984375,-0.13836097717285156,-0.24984388053417206,0.24129177629947662
1772883289096746500,3.02374658203125,-0.2321287989616394,-0.2557998299598694,0.18448130786418915
1772883289113339600,3.040339599609375,-0.3269656300544739,-0.2646573781967163,0.07788532227277756
1772883289129936400,3.056936279296875,-0.41493022441864014,-0.2701551616191864,0.027183502912521362
1772883289146521900,3.07352197265625,-0.4853324294090271,-0.24266621470451355,0.07635815441608429
1772883289163150300,3.090150390625,-0.508087158203125,-0.0988074541091919,0.18967366218566895
1772883289179756300,3.10675634765625,-0.48777589201927185,0.11804971098899841,0.28756481409072876
1772883289196359200,3.123359130859375,-0.47907108068466187,0.2454151064157486,0.3744603991508484
1772883289212964000,3.139964111328125,-0.5186246037483215,0.10751228034496307,0.3908010423183441
1772883289229565700,3.156565673828125,-0.5642867684364319,-0.05925392732024193,0.4329507350921631
1772883289246187500,3.1731875,-0.5994115471839905,-0.1258382350206375,0.47219884395599365
1772883289262796500,3.189796630859375,-0.6618725061416626,-0.2070833146572113,0.35384368896484375
1772883289279393500,3.2063935546875,-0.7861835956573486,-0.36163222789764404,0.1085812970995903
1772883289296006700,3.223006591796875,-0.9057604670524597,-0.4375322461128235,-0.15577064454555511
1772883289312608000,3.23960791015625,-0.9668469429016113,-0.24846944212913513,-0.28848111629486084
1772883289329199600,3.25619970703125,-0.9567676782608032,0.08048149943351746,-0.28099802136421204
1772883289345800400,3.272800537109375,-0.8611672520637512,0.3830125033855438,-0.1722639948129654
1772883289362419000,3.2894189453125,-0.7440338730812073,0.4986187517642975,-0.02367102913558483
1772883289379028500,3.306028564453125,-0.613461434841156,0.38499781489372253,0.12538009881973267
1772883289395617800,3.32261767578125,-0.4834998548030853,0.14049901068210602,0.27947086095809937
1772883289412223000,3.339222900390625,-0.3712533414363861,-0.1595885455608368,0.45784351229667664
1772883289428847400,3.355847412109375,-0.26801711320877075,-0.3413209617137909,0.6172793507575989
1772883289445444900,3.37244482421875,-0.21044307947158813,-0.379652738571167,0.640644907951355
1772883289462053400,3.389053466796875,-0.20723603665828705,-0.3344487249851227,0.49785518646240234
1772883289478653400,3.4056533203125,-0.22846360504627228,-0.24785856902599335,0.2594650089740753
1772883289495268400,3.422268310546875,-0.24297164380550385,-0.19089539349079132,0.03985895588994026
1772883289511869200,3.438869140625,-0.2353358417749405,-0.08399397134780884,-0.060933809727430344
1772883289528460000,3.4554599609375,-0.23396138846874237,0.08139779418706894,-0.0757472887635231
1772883289545076500,3.472076416015625,-0.23090706765651703,0.23548854887485504,-0.08933904021978378
1772883289561667600,3.48866748046875,-0.2255619913339615,0.2770273983478546,-0.10308351367712021
1772883289578285000,3.50528515625,-0.19379699230194092,0.22632557153701782,-0.07391469180583954
1772883289594898200,3.521898193359375,-0.1420261710882187,0.11270463466644287,-0.02733621932566166
1772883289611481300,3.5384814453125,-0.08277224004268646,0.006719517521560192,-0.04382958263158798
1772883289628089000,3.555089111328125,-0.01664607785642147,-0.02687807008624077,-0.096211276948452
1772883289644695600,3.571695556640625,0.03787364438176155,-0.020922135561704636,-0.13286319375038147
1772883289661301000,3.588301025390625,0.06765332818031311,-0.003817907767370343,-0.11743884533643723
1772883289677901800,3.60490185546875,0.09117163717746735,0.01771509274840355,-0.04352414980530739
1772883289694514200,3.62151416015625,0.11224649101495743,0.05467243865132332,0.04092797264456749
1772883289711102200,3.638102294921875,0.11835514008998871,0.10461067408323288,0.06643159687519073
1772883289727708700,3.654708740234375,0.12599095702171326,0.11972958594560623,0.04734205827116966
1772883289752658700,3.67965869140625,0.14309518039226532,0.06994406878948212,0.022907447069883347
1772883289769254400,3.69625439453125,0.16233743727207184,0.01618792861700058,0.052839845418930054
1772883289785851400,3.712851318359375,0.18539759516716003,0.037110064178705215,0.12690725922584534
1772883289802456300,3.729456298828125,0.20845776796340942,0.11316278576850891,0.24694228172302246
1772883289819061800,3.746061767578125,0.2428189367055893,0.18524488806724548,0.3614795207977295
1772883289835666700,3.762666748046875,0.27977627515792847,0.16279558837413788,0.40393465757369995
1772883289852271600,3.779271728515625,0.29504790902137756,0.08735372871160507,0.38117989897727966
1772883289868862700,3.79586279296875,0.3043636083602905,0.018020525574684143,0.33169981837272644
1772883289885481700,3.812481689453125,0.299476683139801,0.0455094613134861,0.29993483424186707
1772883289902087200,3.829087158203125,0.28359419107437134,0.20983220636844635,0.30711251497268677
1772883289918675700,3.84567578125,0.26053401827812195,0.2837468981742859,0.2808452844619751
1772883289935297800,3.8622978515625,0.25595253705978394,0.31184670329093933,0.28237244486808777
1772883289951902200,3.878902099609375,0.2562579810619354,0.251676470041275,0.26832255721092224
1772883289968491500,3.895491455078125,0.22082778811454773,0.10583240538835526,0.16065755486488342
1772883289985112300,3.9121123046875,0.1437060534954071,-0.0835358202457428,-0.07284568250179291
1772883290001717200,3.92871728515625,0.03191770985722542,-0.21624629199504852,-0.33246341347694397
1772883290018306000,3.94530615234375,-0.0607810914516449,-0.16951510310173035,-0.4479169547557831
1772883290034932000,3.961931884765625,-0.08552113175392151,0.05864306539297104,-0.4207334518432617
1772883290051529000,3.978529052734375,-0.0354301854968071,0.2496911734342575,-0.2831360399723053
1772883290068138500,3.995138427734375,0.032070424407720566,0.36071592569351196,-0.05803219974040985
1772883290084743000,4.011742919921875,0.09392052888870239,0.3674354553222656,0.1342376321554184
1772883290101331000,4.0283310546875,0.1388191282749176,0.28099802136421204,0.2295326143503189
1772883290117939500,4.044939453125,0.166460782289505,0.13316862285137177,0.19914206862449646
1772883290134544600,4.061544677734375,0.19746218621730804,0.01542434748262167,0.13026700913906097
1772883290151149600,4.078149658203125,0.2474004179239273,-0.07773260027170181,0.06123924255371094
1772883290167754800,4.094754638671875,0.28130343556404114,-0.1258382350206375,0.028557950630784035
1772883290184359700,4.111359619140625,0.2791654169559479,-0.09468411654233932,0.038637228310108185
1772883290200964900,4.12796484375,0.25564709305763245,-0.05925392732024193,0.07666359096765518
1772883290217561900,4.144561767578125,0.22220222651958466,-0.07391469180583954,0.0809396430850029
1772883290234192100,4.161192138671875,0.19043724238872528,-0.08827003091573715,0.015577063895761967
1772883290250793000,4.17779296875,0.15302173793315887,-0.09208793938159943,-0.10781771689653397
1772883290267400200,4.194400146484375,0.10797043144702911,-0.06322455406188965,-0.1976149082183838
1772883290284004000,4.211004150390625,0.06612616032361984,-0.003817907767370343,-0.20204368233680725
1772883290300608800,4.22760888671875,0.04581489413976669,0.09896016865968704,-0.156686931848526
1772883290317209900,4.2442099609375,0.04184427112340927,0.12400564551353455,-0.1437060534954071
1772883290333819600,4.260819580078125,0.046731192618608475,0.08674286305904388,-0.15042556822299957
1772883290350424300,4.27742431640625,0.05742133408784866,0.01878410577774048,-0.17867808043956757
1772883290367018000,4.29401806640625,0.05665775015950203,-0.04917465150356293,-0.20051652193069458
1772883290383634200,4.31063427734375,0.05268712714314461,-0.07422012835741043,-0.1837177276611328
1772883290400239400,4.3272392578125,0.03344487398862839,-0.07849618047475815,-0.11774427443742752
1772883290416845000,4.343844970703125,0.02977968007326126,-0.01970040425658226,-0.03680463135242462
1772883290433450200,4.3604501953125,0.03405573591589928,0.031612277030944824,-0.007177666760981083
1772883290450054400,4.377054443359375,0.027030786499381065,0.03940080851316452,-0.03741549700498581
1772883290466660400,4.393660400390625,0.006261368747800589,-0.026572637259960175,-0.08888089656829834
1772883290483264800,4.4102646484375,-0.018020525574684143,-0.054367005825042725,-0.0835358202457428
1772883290499869700,4.42686962890625,-0.03084869496524334,-0.10262536257505417,-0.039248090237379074
1772883290516458800,4.443458740234375,-0.040622539818286896,-0.11911872029304504,0.036041051149368286
1772883290533080600,4.46008056640625,-0.058184914290905,-0.128434419631958,0.08781187981367111
1772883290549685000,4.47668505859375,-0.07162395119667053,-0.13545936346054077,0.09315694868564606
1772883290566291000,4.493291015625,-0.0981965884566307,-0.12095131725072861,0.03726277872920036
1772883290582891800,4.509891845703125,-0.13377949595451355,-0.11789698898792267,-0.08689557760953903
1772883290599486700,4.52648681640625,-0.17989981174468994,-0.11133018881082535,-0.1693623960018158
1772883290616078600,4.54307861328125,-0.21578814089298248,-0.08155050873756409,-0.15500704944133759
1772883290632697300,4.559697265625,-0.2119702398777008,0.0012217304902151227,-0.0884227454662323
1772883290649302000,4.576302001953125,-0.18096883594989777,0.06154467165470123,-0.037110064178705215
1772883290665907000,4.592906982421875,-0.1411098688840866,0.1088867336511612,-0.047189339995384216
1772883290682512100,4.60951220703125,-0.1062905490398407,0.14523321390151978,-0.10842858254909515
1772883290699117000,4.626116943359375,-0.0780380368232727,0.1973094791173935,-0.19517144560813904
1772883290715714600,4.642714599609375,-0.0705549344420433,0.18341228365898132,-0.3397938013076782
1772883290732344300,4.65934423828125,-0.07360926270484924,0.10949759185314178,-0.5123631954193115
1772883290748946200,4.6759462890625,-0.07223481684923172,0.02367102913558483,-0.6913467645645142
1772883290765551900,4.6925517578125,-0.06520986557006836,-0.024129176512360573,-0.8402451276779175
1772883290782141400,4.709141357421875,-0.02687807008624077,-0.00015271631127689034,-0.8758280277252197
1772883290798761000,4.725760986328125,0.04352414980530739,0.06505715101957321,-0.7925976514816284
1772883290815357000,4.74235693359375,0.12660181522369385,0.08781187981367111,-0.6125451326370239
1772883290831971600,4.7589716796875,0.192422553896904,0.06444628536701202,-0.3888157308101654
1772883290848576300,4.775576171875,0.2382374405860901,0.019853120669722557,-0.21273382008075714
1772883290865182200,4.79218212890625,0.24144448339939117,-0.020463986322283745,-0.08521570265293121
1772883290881779000,4.808779052734375,0.17379115521907806,-0.056810468435287476,0.020311269909143448
1772883290898391600,4.8253916015625,0.0354301854968071,-0.16752979159355164,0.09896016865968704
1772883290914976500,4.8419765625,-0.12828169763088226,-0.2525927722454071,0.18509216606616974
1772883290931604700,4.858604736328125,-0.2915354371070862,-0.24388794600963593,0.2226603776216507
1772883290948204500,4.87520458984375,-0.4537201523780823,-0.22357667982578278,0.13439035415649414
1772883290964812500,4.8918125,-0.6155994534492493,-0.18799377977848053,-0.03985895588994026
1772883290981417200,4.908417236328125,-0.7467827796936035,-0.12690725922584534,-0.23900102078914642
1772883290998022100,4.925022216796875,-0.7925976514816284,0.0029016099870204926,-0.3579670190811157
1772883291014627300,4.94162744140625,-0.7467827796936035,0.16539175808429718,-0.34697145223617554
1772883291031232300,4.958232177734375,-0.6542366743087769,0.2538145184516907,-0.24098633229732513
1772883291047851800,4.974851806640625,-0.5673410892486572,0.25473082065582275,-0.11316278576850891
1772883291064443400,4.991443359375,-0.5091561675071716,0.15592335164546967,-0.04917465150356293
1772883291081030700,5.00803076171875,-0.470060795545578,-0.0039706239476799965,-0.056810468435287476
1772883291097639200,5.02463916015625,-0.4346306324005127,-0.12996158003807068,-0.1059851199388504
1772883291114244400,5.041244384765625,-0.3914119005203247,-0.11881329119205475,-0.15577064454555511
1772883291130849300,5.057849365234375,-0.3413209617137909,-0.07559457421302795,-0.20693060755729675
1772883291147436500,5.0744365234375,-0.28756481409072876,-0.040622539818286896,-0.22098049521446228
1772883291164061400,5.0910615234375,-0.23136521875858307,-0.0025961773935705423,-0.19654589891433716
1772883291180662500,5.10766259765625,-0.18005253374576569,0.007941247895359993,-0.18341228365898132
1772883291197269500,5.12426953125,-0.12293662875890732,0.03237585723400116,-0.18325957655906677
1772883291213878000,5.1408779296875,-0.07070764899253845,0.08124507963657379,-0.2148718535900116
1772883291230503000,5.1575029296875,-0.03390302136540413,0.10613783448934555,-0.27519479393959045
1772883291247081500,5.17408154296875,-0.013133603148162365,0.06429356336593628,-0.30894508957862854
1772883291263703600,5.19070361328125,0.01725694350898266,0.014508049935102463,-0.28817567229270935
1772883291280308700,5.207308837890625,0.06475171446800232,-0.01618792861700058,-0.2217440903186798
1772883291296914000,5.223913818359375,0.11774427443742752,-0.06994406878948212,-0.12034045159816742
1772883291313521700,5.240521728515625,0.16508632898330688,-0.1088867336511612,-0.014049900695681572
1772883291330123500,5.25712353515625,0.20387627184391022,-0.10842858254909515,0.07360926270484924
1772883291346719500,5.273719482421875,0.23136521875858307,-0.026572637259960175,0.1333213448524475
1772883291363334100,5.290334228515625,0.2545780837535858,0.0933096632361412,0.13286319375038147
1772883291379939000,5.30693896484375,0.26450464129447937,0.14752395451068878,0.0708603709936142
1772883291396544500,5.32354443359375,0.2669481039047241,0.1661553531885147,-0.02871066704392433
1772883291413149200,5.340149169921875,0.2561052441596985,0.15836681425571442,-0.15485434234142303
1772883291429754000,5.356754150390625,0.2272418737411499,0.0780380368232727,-0.27030786871910095
1772883291446377700,5.373377685546875,0.22067506611347198,-0.005039638374000788,-0.26633724570274353
1772883291462964500,5.389964599609375,0.22708915174007416,-0.05375614017248154,-0.11835514008998871
1772883291479569400,5.4065693359375,0.25305092334747314,-0.08765916526317596,0.02076941914856434
1772883291496174800,5.4231748046875,0.2822197377681732,-0.11392636597156525,0.06429356336593628
1772883291512755200,5.439755126953125,0.30405816435813904,-0.08903361111879349,0.12370020896196365
1772883291529387500,5.456387451171875,0.3510948121547699,-0.05772676691412926,0.3248275816440582
1772883291545960400,5.47296044921875,0.44318273663520813,0.07971791177988052,0.6630942225456238
1772883291562591700,5.489591796875,0.5363397002220154,0.28069257736206055,0.9375254511833191
1772883291579186400,5.5061865234375,0.579405665397644,0.27840182185173035,1.00197172164917
1772883291595791400,5.522791259765625,0.5615378618240356,0.0936150997877121,0.90728759765625
1772883291612393500,5.5393935546875,0.49357911944389343,-0.11988230794668198,0.7205155491828918
1772883291628991700,5.55599169921875,0.4053090810775757,-0.2122756689786911,0.5439754724502563
1772883291645593600,5.572593505859375,0.32299500703811646,-0.17638733983039856,0.4262312352657318
1772883291662211800,5.5892119140625,0.26083946228027344,-0.15027284622192383,0.34177911281585693
1772883291678817000,5.605817138671875,0.21471913158893585,-0.17302757501602173,0.30085113644599915
1772883291695422000,5.622421875,0.16065755486488342,-0.2252565622329712,0.2900082767009735
1772883291712044300,5.639044189453125,0.11438451707363129,-0.2698497176170349,0.24877487123012543
1772883291728614100,5.6556142578125,0.09346238523721695,-0.256868839263916,0.15592335164546967
1772883291745235700,5.672235595703125,0.07910704612731934,-0.13973543047904968,0.0835358202457428
1772883291761856300,5.688856201171875,0.07009678333997726,0.01618792861700058,0.11652254313230515
1772883291778461000,5.7054609375,0.08888089656829834,0.1898263692855835,0.1973094791173935
1772883291795066400,5.72206640625,0.11881329119205475,0.24342979490756989,0.22632557153701782
1772883291811671300,5.73867138671875,0.14553864300251007,0.21930062770843506,0.1693623960018158
1772883291828260000,5.755260009765625,0.15622878074645996,0.15836681425571442,0.07360926270484924
1772883291844871700,5.77187158203125,0.13897185027599335,0.09269879758358002,0.02474004216492176
1772883291861507800,5.7885078125,0.1281289905309677,0.13973543047904968,0.0858265683054924
1772883291878091300,5.80509130859375,0.14126259088516235,0.28527405858039856,0.20097467303276062
1772883291894696700,5.82169677734375,0.1635591685771942,0.3543018400669098,0.2635883390903473
1772883291911285000,5.838284912109375,0.17088955640792847,0.27550023794174194,0.2623666226863861
1772883291927902500,5.85490234375,0.15424346923828125,0.1508837193250656,0.21044307947158813
1772883291944513800,5.871513671875,0.12003502249717712,0.006108652334660292,0.11575896292924881
1772883291961120000,5.8881201171875,0.07651086896657944,-0.06185010448098183,0.010079276748001575
1772883291977722000,5.90472216796875,0.02626720629632473,-0.07422012835741043,-0.0832303911447525
1772883291994327000,5.9213271484375,-0.034666601568460464,-0.06414084881544113,-0.10537425428628922
1772883292010929000,5.937928955078125,-0.1059851199388504,-0.09147707372903824,-0.0809396430850029
1772883292027524000,5.954524169921875,-0.1866193264722824,-0.14294247329235077,-0.0630718395113945
1772883292044122400,5.971122314453125,-0.2612976133823395,-0.1745547503232956,-0.09697485715150833
1772883292060734700,5.987734619140625,-0.32879820466041565,-0.19257527589797974,-0.1589776873588562
1772883292077339000,6.0043388671875,-0.37140607833862305,-0.14294247329235077,-0.18875735998153687
1772883292093943800,6.02094384765625,-0.41263946890830994,-0.03848451003432274,-0.14233160018920898
1772883292110546200,6.037546142578125,-0.470671683549881,0.11071932315826416,-0.08017606288194656
1772883292127156700,6.05415673828125,-0.5076290369033813,0.20387627184391022,-0.09941831976175308
1772883292143759400,6.07075927734375,-0.5064072608947754,0.2073887437582016,-0.11270463466644287
1772883292160364300,6.0873642578125,-0.46364670991897583,0.17806722223758698,-0.04963280260562897
1772883292176969200,6.10396923828125,-0.4072943925857544,0.13897185027599335,-0.001679879380390048
1772883292193567200,6.120567138671875,-0.37919458746910095,0.027183502912521362,-0.050854530185461044
1772883292210180000,6.13718017578125,-0.3833179473876953,-0.07101308554410934,-0.18356500566005707
1772883292226798600,6.153798583984375,-0.37888917326927185,0.011759156361222267,-0.33169981837272644
1772883292243400200,6.170400146484375,-0.35353827476501465,0.22098049521446228,-0.40225476026535034
1772883292260011300,6.18701123046875,-0.31749722361564636,0.4027129113674164,-0.37308594584465027
1772883292276612600,6.203612548828125,-0.25824329257011414,0.46150869131088257,-0.24358251690864563
1772883292293219300,6.22021923828125,-0.16691893339157104,0.3700316250324249,-0.00427605677396059
1772883292309809400,6.236809326171875,-0.07849618047475815,0.2324342280626297,0.29886582493782043
1772883292326425000,6.253425048828125,-0.03145955875515938,0.10277807712554932,0.5401576161384583
1772883292343034600,6.27003466796875,-0.030695978552103043,0.03329215571284294,0.6197227835655212
1772883292359641600,6.2866416015625,-0.04764748737215996,-0.021380282938480377,0.554818332195282
1772883292376243700,6.30324365234375,-0.10766500234603882,-0.08720101416110992,0.3660610020160675
1772883292392849000,6.319848876953125,-0.18616119027137756,-0.1794416606426239,0.0685696229338646
1772883292409437400,6.3364375,-0.23915374279022217,-0.21853704750537872,-0.16523905098438263
1772883292426055400,6.353055419921875,-0.23029619455337524,-0.13637566566467285,-0.2070833146572113
1772883292442665200,6.369665283203125,-0.17470745742321014,0.030237829312682152,-0.10842858254909515
1772883292459255800,6.386255859375,-0.10247264802455902,0.2528982162475586,0.06444628536701202
1772883292475874300,6.402874267578125,-0.042760565876960754,0.3527746796607971,0.1823432743549347
1772883292492479500,6.4194794921875,-0.01114829070866108,0.26053401827812195,0.2122756689786911
1772883292509077000,6.436076904296875,0.016493361443281174,0.09636399149894714,0.1869247704744339
1772883292525690000,6.452690185546875,0.038179077208042145,-0.078343465924263,0.07422012835741043
1772883292542293200,6.469293212890625,0.028557950630784035,-0.20295998454093933,-0.11728613078594208
1772883292558884400,6.48588427734375,0.013133603148162365,-0.2324342280626297,-0.3208569586277008
1772883292575480600,6.50248046875,0.013591751456260681,-0.10476338863372803,-0.43539419770240784
1772883292592081700,6.51908154296875,0.026114489883184433,0.0685696229338646,-0.45066583156585693
1772883292608695000,6.535695068359375,0.04046982154250145,0.16951510310173035,-0.41004329919815063
1772883292625306600,6.552306640625,0.07101308554410934,0.22113321721553802,-0.3527746796607971
1772883292641911600,6.56891162109375,0.11316278576850891,0.15363261103630066,-0.29138273000717163
1772883292658516500,6.5855166015625,0.14004085958003998,0.02932153269648552,-0.20983220636844635
1772883292675108600,6.602108642578125,0.14156801998615265,-0.040164388716220856,-0.14065171778202057
1772883292691726600,6.6187265625,0.1420261710882187,-0.07437284290790558,-0.10018189996480942
1772883292708356000,6.635356201171875,0.1498146951198578,-0.06994406878948212,-0.08521570265293121
1772883292724950800,6.65195068359375,0.166460782289505,-0.04077525436878204,-0.07391469180583954
1772883292741548300,6.66854833984375,0.17348572611808777,-0.016340645030140877,-0.020311269909143448
1772883292758167800,6.685167724609375,0.18524488806724548,0.00366519158706069,0.039095375686883926
1772883292774765600,6.701765625,0.18066339194774628,0.04902193695306778,0.0731511116027832
1772883292791370800,6.718370849609375,0.1485929638147354,0.13958270847797394,0.09514226019382477
1772883292807964400,6.73496435546875,0.09773843735456467,0.16203200817108154,0.06414084881544113
1772883292824581400,6.751581298828125,0.06872233748435974,0.0377209298312664,-0.02733621932566166
1772883292841186000,6.76818603515625,0.04963280260562897,-0.07147123664617538,-0.14034628868103027
1772883292857791700,6.784791748046875,0.04535674303770065,-0.07712173461914062,-0.27000242471694946
1772883292874396200,6.801396240234375,0.04230241850018501,0.012675453908741474,-0.34773504734039307
1772883292891001300,6.81800146484375,0.044287730008363724,0.08170322328805923,-0.36193767189979553
1772883292907622400,6.834622314453125,0.06658431142568588,0.11224649101495743,-0.3449861407279968
1772883292924211700,6.851211669921875,0.0913243517279625,0.11545353382825851,-0.2825251817703247
1772883292940812300,6.867812255859375,0.11102475970983505,0.008399397134780884,-0.17837265133857727
1772883292957422300,6.88442236328125,0.10262536257505417,-0.15454891324043274,-0.08414668589830399
1772883292974030300,6.9010302734375,0.11423180252313614,-0.20830504596233368,0.025656340643763542
1772883292990631700,6.917631591796875,0.17119498550891876,-0.006719517521560192,0.20005837082862854
1772883293007220500,6.934220458984375,0.26145032048225403,0.31031954288482666,0.4495968222618103
1772883293023842300,6.95084228515625,0.3266601860523224,0.41981714963912964,0.6217080950737
1772883293040429800,6.967429931640625,0.3784310221672058,0.2603813111782074,0.6362161636352539
1772883293057038600,6.98403857421875,0.4144720733165741,0.004428773187100887,0.5684100985527039
1772883293073643500,7.0006435546875,0.43768495321273804,-0.16203200817108154,0.4746423065662384
1772883293090248400,7.01724853515625,0.43478333950042725,-0.22021691501140594,0.4124867618083954
1772883293106837800,7.033837646484375,0.41233405470848083,-0.22678372263908386,0.389426589012146
1772883293123448300,7.0504482421875,0.40103304386138916,-0.23182335495948792,0.3430008292198181
1772883293140064000,7.06706396484375,0.38087448477745056,-0.2742784917354584,0.26190847158432007
1772883293156669000,7.0836689453125,0.3660610020160675,-0.2831360399723053,0.21395555138587952
1772883293173273900,7.10027392578125,0.3536909818649292,-0.24678955972194672,0.15882496535778046
1772883293189882400,7.11688232421875,0.342237263917923,-0.17592918872833252,0.08903361111879349
1772883293206481700,7.133481689453125,0.3165809214115143,-0.07651086896657944,0.06108652427792549
1772883293223103200,7.150103271484375,0.2938261926174164,0.04596760869026184,0.08200865983963013
1772883293239710200,7.166710205078125,0.2857322096824646,0.08628471940755844,0.09972374886274338
1772883293256311000,7.18331103515625,0.2817615866661072,0.05803219974040985,0.0630718395113945
1772883293272918300,7.199918212890625,0.2715296149253845,0.0630718395113945,-0.0009162978967651725
1772883293289523200,7.216523193359375,0.2515237629413605,0.08277224004268646,-0.013439035043120384
1772883293306112000,7.233112060546875,0.23426681756973267,0.09040805697441101,0.024434609338641167
1772883293322733600,7.249733642578125,0.2154827117919922,0.08628471940755844,0.03375030308961868
1772883293339339500,7.266339599609375,0.18738290667533875,0.11468994617462158,0.014049900695681572
1772883293355942700,7.282942626953125,0.16737708449363708,0.16737708449363708,0.0007635815418325365
1772883293372548600,7.299548583984375,0.156686931848526,0.18051068484783173,0.017409659922122955
1772883293389153300,7.3161533203125,0.12461651116609573,0.13668109476566315,0.0377209298312664
1772883293405731300,7.3327314453125,0.05726861581206322,0.08704829961061478,0.03634648025035858
1772883293422364000,7.349364013671875,-0.022907447069883347,0.09010262042284012,0.02168571576476097
1772883293438964700,7.36596484375,-0.07757988572120667,0.09392052888870239,-0.005650503560900688
1772883293455578000,7.382578125,-0.09834930300712585,0.059406645596027374,0.015118914656341076
1772883293472192000,7.39919189453125,-0.10155634582042694,-0.01618792861700058,0.06536258012056351
1772883293488784000,7.415783935546875,-0.13637566566467285,-0.1264491081237793,0.046731192618608475
1772883293505375200,7.432375244140625,-0.2203696370124817,-0.18066339194774628,-0.009621127508580685
1772883293521991000,7.448990966796875,-0.27977627515792847,-0.1391245573759079,-0.01725694350898266
1772883293538582500,7.46558251953125,-0.2921462953090668,0.010690141469240189,0.07238753139972687
1772883293555193900,7.48219384765625,-0.2814561724662781,0.1371392458677292,0.17776179313659668
1772883293571796000,7.4987958984375,-0.29184088110923767,0.10690141469240189,0.1615738570690155
1772883293588400600,7.515400634765625,-0.3061962127685547,0.07712173461914062,0.07269296050071716
1772883293604996600,7.53199658203125,-0.34544429183006287,0.04764748737215996,-0.059864792972803116
1772883293621611300,7.548611328125,-0.42088615894317627,-0.010842857882380486,-0.25335636734962463
1772883293638216000,7.5652158203125,-0.5044219493865967,-0.055741455405950546,-0.45204028487205505
1772883293654821000,7.581821044921875,-0.5448917746543884,0.02474004216492176,-0.5618433356285095
1772883293671426000,7.598426025390625,-0.5393940210342407,0.22632557153701782,-0.5494732856750488
1772883293688048400,7.61504833984375,-0.5170974135398865,0.3501785099506378,-0.4714352488517761
1772883293704647700,7.631647705078125,-0.4668537676334381,0.37659841775894165,-0.3793473243713379
1772883293721255700,7.648255615234375,-0.3773620128631592,0.3202461004257202,-0.2984076738357544
1772883293737853700,7.664853759765625,-0.2626720666885376,0.16019940376281738,-0.194713294506073
1772883293754472000,7.681471923828125,-0.13866640627384186,0.0065668015740811825,-0.016340645030140877
1772883293771043300,7.698043212890625,-0.06429356336593628,-0.14324790239334106,0.17287486791610718
1772883293787671000,7.714671142578125,-0.07009678333997726,-0.32391130924224854,0.29336804151535034
1772883293804267800,7.731267822265625,-0.10445795953273773,-0.39843684434890747,0.31062498688697815
1772883293820885500,7.747885498046875,-0.13836097717285156,-0.40072759985923767,0.1996002197265625
1772883293837497300,7.764497314453125,-0.16523905098438263,-0.4108068645000458,0.01572977937757969
1772883293854089500,7.78108935546875,-0.19394971430301666,-0.4537201523780823,-0.13255776464939117
1772883293870687700,7.797687744140625,-0.2451096773147583,-0.3790418803691864,-0.17821992933750153
1772883293887305700,7.8143056640625,-0.30711251497268677,-0.24724771082401276,-0.14584407210350037
1772883293903894500,7.83089453125,-0.35155296325683594,-0.0455094613134861,-0.07635815441608429
1772883293920516000,7.84751611328125,-0.3599523603916168,0.07987063378095627,-0.028557950630784035
1772883293937121800,7.864121826171875,-0.34177911281585693,0.09346238523721695,-0.025045474991202354
1772883293953726200,7.880726318359375,-0.31581732630729675,0.028557950630784035,-0.04596760869026184
1772883293970316500,7.897316650390625,-0.3142901659011841,-0.04581489413976669,-0.08185594528913498
1772883293986936000,7.91393603515625,-0.3326161205768585,-0.08216137439012527,-0.1293507218360901
1772883294003556900,7.930556884765625,-0.3448334336280823,-0.07681630551815033,-0.18555031716823578
1772883294020129300,7.94712939453125,-0.36529740691185,0.029626963660120964,-0.20616702735424042
1772883294036738000,7.963738037109375,-0.3956879675388336,0.16722436249256134,-0.20082195103168488
1772883294053343000,7.980343017578125,-0.394618958234787,0.1999056488275528,-0.1895209401845932
1772883294069951200,7.996951171875,-0.3332269787788391,0.16035212576389313,-0.11071932315826416
1772883294086553000,8.013552978515625,-0.2480112910270691,0.08964447677135468,-0.02122756652534008
1772883294103156500,8.030156494140625,-0.1927279829978943,0.041691552847623825,0.012675453908741474
1772883294119763200,8.04676318359375,-0.17837265133857727,0.03497203439474106,-0.01466076634824276
1772883294136369200,8.063369140625,-0.16569720208644867,0.04612032696604729,-0.07147123664617538
1772883294152973300,8.079973388671876,-0.13530665636062622,0.11148291081190109,-0.096211276948452
1772883294169578500,8.09657861328125,-0.08918632566928864,0.12202033400535583,-0.08689557760953903
1772883294186218200,8.11321826171875,-0.052228979766368866,0.08216137439012527,-0.03451388701796532
1772883294202788000,8.1297880859375,-0.010537425056099892,-0.009162978269159794,0.031612277030944824
1772883294219407600,8.14640771484375,0.026419922709465027,-0.1290452778339386,0.06291911751031876
1772883294236008200,8.16300830078125,0.08674286305904388,-0.2226603776216507,0.0757472887635231
1772883294252621600,8.17962158203125,0.16264286637306213,-0.18616119027137756,0.10201449692249298
1772883294269190100,8.196190185546875,0.22892175614833832,-0.04764748737215996,0.07590000331401825
1772883294285810700,8.212810791015626,0.2681698501110077,-0.032681290060281754,-0.06734789162874222
1772883294302433500,8.22943359375,0.29367345571517944,-0.008857546374201775,-0.11285735666751862
1772883294319037200,8.246037109375,0.3199406862258911,-0.07483099400997162,-0.11927144229412079
1772883294335638800,8.262638671875,0.308792382478714,-0.23380866646766663,-0.20112738013267517
1772883294352252000,8.279251953125,0.289244681596756,-0.29657506942749023,-0.32421672344207764
1772883294368867300,8.295867431640625,0.26771169900894165,-0.1846340149641037,-0.3413209617137909
1772883294385441500,8.312441650390625,0.25274550914764404,0.05467243865132332,-0.2926044464111328
1772883294402046500,8.32904638671875,0.25213462114334106,0.21334469318389893,-0.21090123057365417
1772883294418668300,8.345668212890626,0.26145032048225403,0.32620203495025635,-0.00733038317412138
1772883294435274000,8.36227392578125,0.28817567229270935,0.42409318685531616,0.33368512988090515
1772883294451878400,8.37887841796875,0.3101668357849121,0.422871470451355,0.6998988389968872
1772883294468480300,8.395480224609376,0.33078351616859436,0.3397938013076782,0.9537133574485779
1772883294485088500,8.412088623046875,0.3430008292198181,0.2269364446401596,1.0380127429962158
1772883294501694500,8.428694580078124,0.32757648825645447,0.09086620807647705,0.9126327037811279
1772883294518285000,8.44528515625,0.3254384696483612,-0.019394971430301666,0.6798930168151855
1772883294534887200,8.46188720703125,0.32986724376678467,-0.04459316283464432,0.5090034604072571
1772883294551494400,8.478494384765625,0.3217732608318329,0.05467243865132332,0.4277583956718445
1772883294568104000,8.49510400390625,0.3061962127685547,0.11636982858181,0.31841349601745605
1772883294584692200,8.511692138671876,0.29367345571517944,0.060933809727430344,0.20433442294597626
1772883294601298000,8.5282978515625,0.2811507284641266,-0.048258353024721146,0.14798210561275482
1772883294617915600,8.54491552734375,0.2889392673969269,-0.15806138515472412,0.07559457421302795
1772883294634518000,8.56151806640625,0.2854267954826355,-0.20570887625217438,-0.02825251780450344
1772883294651128300,8.57812841796875,0.26862800121307373,-0.14584407210350037,-0.12217304855585098
1772883294667730700,8.594730712890625,0.2519819140434265,-0.05360342562198639,-0.16340644657611847
1772883294684353000,8.61135302734375,0.2695443034172058,0.03634648025035858,-0.13836097717285156
1772883294700950300,8.6279501953125,0.3219259977340698,0.04581489413976669,-0.12461651116609573
1772883294717564000,8.64456396484375,0.36880987882614136,-0.014355333521962166,-0.18738290667533875
1772883294734156500,8.661156494140625,0.3674354553222656,-0.0858265683054924,-0.23839016258716583
1772883294750778000,8.677778076171874,0.32162055373191833,-0.14034628868103027,-0.19226983189582825
1772883294767341000,8.694341064453125,0.29886582493782043,-0.12110403180122375,-0.11621711403131485
1772883294783980300,8.710980224609376,0.31383201479911804,-0.04764748737215996,-0.0074830991216003895
1772883294800585500,8.72758544921875,0.3588833212852478,0.05253441259264946,0.11530081182718277
1772883294817189600,8.744189697265625,0.3588833212852478,0.08735372871160507,0.1719585657119751
1772883294833791200,8.760791259765625,0.3098613917827606,0.01664607785642147,0.13301590085029602
1772883294850391000,8.77739111328125,0.251218318939209,-0.07376197725534439,0.09040805697441101
1772883294866987500,8.793987548828126,0.19028452038764954,-0.12797626852989197,0.08888089656829834
1772883294883611600,8.810611572265625,0.12751811742782593,-0.12171489745378494,0.1310305893421173
1772883294900215300,8.82721533203125,0.06704246252775192,-0.10125091671943665,0.17791450023651123
1772883294916820700,8.84382080078125,-0.00931569468230009,-0.17852537333965302,0.17318029701709747
1772883294933422300,8.86042236328125,-0.12186761945486069,-0.2525927722454071,0.13744467496871948
1772883294950034000,8.877033935546875,-0.2606867551803589,-0.28328874707221985,-0.0009162978967651725
1772883294966619400,8.893619384765625,-0.385303258895874,-0.3061962127685547,-0.16264286637306213
1772883294983241000,8.910240966796875,-0.45066583156585693,-0.2860376536846161,-0.18157969415187836
1772883294999828700,8.926828857421874,-0.4392121136188507,-0.15302173793315887,-0.05345070734620094
1772883295016437500,8.9434375,-0.4014911949634552,0.015271631069481373,0.061391957104206085
1772883295033037800,8.960037841796876,-0.4453207552433014,0.044287730008363724,0.07971791177988052
1772883295049652200,8.97665234375,-0.5196936130523682,0.1693623960018158,0.08720101416110992
1772883295066252500,8.99325244140625,-0.5309945940971375,0.30375275015830994,-0.032070424407720566
1772883295082857700,9.009857666015625,-0.5849034786224365,0.1742493063211441,-0.21410827338695526
1772883295099462700,9.026462646484376,-0.6536257863044739,-0.047800205647945404,-0.32100969552993774
1772883295116054800,9.0430546875,-0.65958172082901,-0.02779436856508255,-0.31261029839515686
1772883295132673000,9.059673095703126,-0.6316346526145935,0.051770828664302826,-0.3245221674442291
1772883295149278000,9.07627783203125,-0.5807801485061646,0.21609358489513397,-0.3043636083602905
1772883295165873200,9.092873046875,-0.4870123267173767,0.4225660264492035,-0.2093740701675415
1772883295182502100,9.109502197265625,-0.4167627990245819,0.4564690589904785,-0.0403171069920063
1772883295199103200,9.126103271484375,-0.289244681596756,0.36911532282829285,0.10415252298116684
1772883295215720000,9.142719970703125,-0.14156801998615265,0.20815233886241913,0.2503020465373993
1772883295232309800,9.159309814453126,-0.04260785132646561,0.02779436856508255,0.34758231043815613
1772883295248925200,9.17592529296875,-0.009621127508580685,-0.14095716178417206,0.40851613879203796
1772883295265538000,9.1925380859375,-0.06414084881544113,-0.23182335495948792,0.4616613984107971
1772883295282132500,9.209132568359376,-0.15653422474861145,-0.18555031716823578,0.43249258399009705
1772883295298733000,9.225733154296876,-0.2122756689786911,-0.15653422474861145,0.3546072840690613
1772883295315345200,9.24234521484375,-0.19517144560813904,-0.11927144229412079,0.20799961686134338
1772883295331953200,9.258953125,-0.12140946835279465,-0.003817907767370343,0.05543602257966995
1772883295348548000,9.275548095703124,-0.0806342139840126,0.21395555138587952,0.04581489413976669
1772883295365145900,9.292145751953125,-0.09666942805051804,0.5494732856750488,0.19364428520202637
1772883295381762800,9.3087626953125,-0.13988813757896423,0.2952006161212921,0.2921462953090668
1772883295398365000,9.325364990234375,-0.12186761945486069,0.04688390716910362,0.15103642642498016
1772883295414971100,9.34197119140625,-0.04856378585100174,-0.00045814894838258624,-0.08368854224681854
1772883295431578600,9.35857861328125,0.0019853119738399982,0.02580905705690384,-0.37568211555480957
1772883295448186000,9.37518603515625,-0.002138028386980295,0.046731192618608475,-0.4807509481906891
