time,seconds_elapsed,z,y,x
1772883286174222300,0.101222412109375,-0.22098049521446228,-0.02535090781748295,-0.13897185027599335
1772883286190828500,0.11782861328125,-0.2249511331319809,0.08445212244987488,-0.12782354652881622
1772883286207463700,0.134463623046875,-0.27488934993743896,-0.012675453908741474,-0.1742493063211441
1772883286224071200,0.1510712890625,-0.35094207525253296,-0.24190263450145721,-0.19394971430301666
1772883286240678400,0.167678466796875,-0.33139440417289734,-0.30772337317466736,-0.23457226157188416
1772883286257264600,0.1842646484375,-0.30375275015830994,-0.3677408695220947,-0.28817567229270935
1772883286273926400,0.200926513671875,-0.23640485107898712,-0.37919458746910095,-0.3113885521888733
1772883286290452700,0.21745263671875,-0.12324206531047821,-0.3006984293460846,-0.35735616087913513
1772883286307086600,0.234086669921875,0.00045814894838258624,-0.13637566566467285,-0.4306600093841553
1772883286323675600,0.250675537109375,0.12553280591964722,0.06948592513799667,-0.3929390609264374
1772883286340301800,0.2673017578125,0.21624629199504852,0.156686931848526,-0.26053401827812195
1772883286356901000,0.283901123046875,0.2710714638233185,0.15561792254447937,-0.13973543047904968
1772883286373510000,0.300510009765625,0.3000875413417816,0.12034045159816742,-0.07864890247583389
1772883286390087400,0.31708740234375,0.29138273000717163,0.04963280260562897,-0.06322455406188965
1772883286406721000,0.333720947265625,0.27259862422943115,-0.030085112899541855,-0.010842857882380486
1772883286423320800,0.35032080078125,0.2768746614456177,-0.09712757170200348,0.11056660860776901
1772883286439934500,0.3669345703125,0.2617557644844055,-0.1950187236070633,0.2474004179239273
1772883286456540700,0.383540771484375,0.23151792585849762,-0.2701551616191864,0.35659259557724
1772883286473149400,0.4001494140625,0.20036379992961884,-0.2739730477333069,0.3804163336753845
1772883286489741600,0.416741455078125,0.15164729952812195,-0.19364428520202637,0.33628132939338684
1772883286506355500,0.43335546875,0.07590000331401825,-0.11530081182718277,0.24113905429840088
1772883286522947000,0.449947021484375,-0.03451388701796532,-0.07620543986558914,0.11942415684461594
1772883286539568000,0.466568115234375,-0.13561208546161652,-0.006719517521560192,0.016798794269561768
1772883286556183800,0.483183837890625,-0.17730364203453064,0.14523321390151978,-0.0529925599694252
1772883286572774100,0.499774169921875,-0.17760907113552094,0.2373211532831192,-0.11652254313230515
1772883286589379000,0.516379150390625,-0.15164729952812195,0.26450464129447937,-0.15271630883216858
1772883286605986300,0.532986328125,-0.08949175477027893,0.19456058740615845,-0.1635591685771942
1772883286622583800,0.549583740234375,-0.041233405470848083,0.016340645030140877,-0.17867808043956757
1772883286639189000,0.56618896484375,-0.010537425056099892,-0.11545353382825851,-0.1837177276611328
1772883286655790300,0.582790283203125,-0.016493361443281174,-0.17409659922122955,-0.19257527589797974
1772883286672385800,0.5993857421875,-0.08200865983963013,-0.16829337179660797,-0.18829920887947083
1772883286688981200,0.615981201171875,-0.16004669666290283,-0.1560760736465454,-0.20112738013267517
1772883286705588700,0.632588623046875,-0.19089539349079132,-0.1498146951198578,-0.2321287989616394
1772883286722200600,0.64920068359375,-0.19120082259178162,-0.09407325088977814,-0.2672535479068756
1772883286738811000,0.665810791015625,-0.19120082259178162,-0.06062837690114975,-0.29886582493782043
1772883286755412700,0.682412841796875,-0.20876319706439972,-0.03833179548382759,-0.3162754774093628
1772883286772042000,0.6990419921875,-0.22846360504627228,-0.006719517521560192,-0.294895201921463
1772883286788619800,0.715619873046875,-0.23625212907791138,0.004123340360820293,-0.23671028017997742
1772883286805243400,0.732243408203125,-0.2503020465373993,-0.01710422709584236,-0.15775595605373383
1772883286821844700,0.7488447265625,-0.24785856902599335,0.07131851464509964,-0.058795779943466187
1772883286838449700,0.76544970703125,-0.22647829353809357,0.17470745742321014,0.012980886735022068
1772883286855067000,0.78206689453125,-0.1992947906255722,0.21059578657150269,0.003817907767370343
1772883286871645700,0.798645751953125,-0.17256943881511688,0.1547016203403473,-0.03084869496524334
1772883286888251100,0.815251220703125,-0.15225815773010254,0.14065171778202057,0.03481931984424591
1772883286904868900,0.831868896484375,-0.13057245314121246,0.13698652386665344,0.1371392458677292
1772883286921476900,0.848476806640625,-0.1287398487329483,0.11560624837875366,0.17821992933750153
1772883286938091300,0.86509130859375,-0.13500121235847473,0.04444044828414917,0.14004085958003998
1772883286954687200,0.881687255859375,-0.1189660057425499,-0.10293079167604446,0.07712173461914062
1772883286971282700,0.89828271484375,-0.07162395119667053,-0.20784689486026764,0.11927144229412079
1772883286987899400,0.9148994140625,0.04001167416572571,-0.11972958594560623,0.2551889419555664
1772883287004497400,0.931497314453125,0.14828753471374512,-0.001832595793530345,0.30085113644599915
1772883287021095000,0.948094970703125,0.21410827338695526,0.15241087973117828,0.2405281960964203
1772883287037717200,0.96471728515625,0.2632829248905182,0.31673362851142883,0.14767667651176453
1772883287054302000,0.981302001953125,0.2698497176170349,0.2848159074783325,-0.02275473065674305
1772883287070908700,0.99790869140625,0.2165517359972,0.09987647086381912,-0.23029619455337524
1772883287087510000,1.014510009765625,0.11071932315826416,-0.1817324161529541,-0.39797869324684143
1772883287104154000,1.031154052734375,0.012217304669320583,-0.31642818450927734,-0.45234572887420654
1772883287120733700,1.047733642578125,-0.023060163483023643,-0.28588494658470154,-0.3588833212852478
1772883287137347300,1.064347412109375,0.031154127791523933,-0.17027868330478668,-0.14263702929019928
1772883287153929700,1.0809296875,0.18555031716823578,0.14217889308929443,0.1765400618314743
1772883287170537000,1.097536865234375,0.346818745136261,0.47021353244781494,0.4306600093841553
1772883287187145700,1.114145751953125,0.4335615932941437,0.5115996599197388,0.4853324294090271
1772883287203753000,1.1307529296875,0.451582133769989,0.33108896017074585,0.4502076804637909
1772883287220350500,1.1473505859375,0.42348232865333557,0.0884227454662323,0.4239404797554016
1772883287236966400,1.16396630859375,0.39416080713272095,-0.09239336848258972,0.39538252353668213
1772883287253563400,1.1805634765625,0.38438695669174194,-0.13209961354732513,0.34544429183006287
1772883287270200000,1.197199951171875,0.3651446998119354,-0.15057829022407532,0.2528982162475586
1772883287286770200,1.213770263671875,0.337503045797348,-0.1609629988670349,0.14355333149433136
1772883287303393800,1.230393798828125,0.3113885521888733,-0.08536841720342636,0.07330382615327835
1772883287319995600,1.24699560546875,0.31031954288482666,0.01618792861700058,0.014049900695681572
1772883287336601000,1.26360107421875,0.3162754774093628,0.006719517521560192,-0.05543602257966995
1772883287353197300,1.280197265625,0.3407101035118103,-0.048105638474226,-0.1134682223200798
1772883287369802500,1.296802490234375,0.32879820466041565,-0.058337632566690445,-0.1514945775270462
1772883287386406000,1.313406005859375,0.3000875413417816,0.014508049935102463,-0.15561792254447937
1772883287403011600,1.330011474609375,0.2970332205295563,0.08643743395805359,-0.1371392458677292
1772883287419606000,1.34660595703125,0.33047810196876526,0.1635591685771942,-0.07101308554410934
1772883287436217600,1.363217529296875,0.35216382145881653,0.17516560852527618,-0.018478672951459885
1772883287452824800,1.379824951171875,0.35353827476501465,0.1267545372247696,-0.01878410577774048
1772883287469447200,1.396447265625,0.3300199508666992,0.0936150997877121,-0.006872233934700489
1772883287486048000,1.413048095703125,0.28955012559890747,0.08628471940755844,0.004123340360820293
1772883287502655200,1.4296552734375,0.2451096773147583,0.15790866315364838,-0.00931569468230009
1772883287519258400,1.44625830078125,0.19074267148971558,0.2571742534637451,-0.04657847434282303
1772883287535872300,1.462872314453125,0.1569923609495163,0.3058907687664032,-0.07116580009460449
1772883287552468200,1.47946826171875,0.13973543047904968,0.18845193088054657,-0.0835358202457428
1772883287569077000,1.496076904296875,0.10659598559141159,-0.07910704612731934,-0.034666601568460464
1772883287585676800,1.5126767578125,0.05390885844826698,-0.289244681596756,0.03191770985722542
1772883287602287900,1.529287841796875,0.006719517521560192,-0.40591996908187866,0.034666601568460464
1772883287618885600,1.5458857421875,-0.0679587572813034,-0.40026944875717163,-0.006108652334660292
1772883287635497200,1.562497314453125,-0.15775595605373383,-0.2545780837535858,-0.020311269909143448
1772883287652082400,1.57908251953125,-0.23365595936775208,-0.07925976812839508,-0.021838432177901268
1772883287668691000,1.59569091796875,-0.26282477378845215,-0.02168571576476097,-0.022143865004181862
1772883287685284000,1.6122841796875,-0.25641068816185,-0.029168816283345222,-0.00015271631127689034
1772883287701903000,1.628903076171875,-0.24908030033111572,-0.032528575509786606,0.06062837690114975
1772883287718500900,1.6455009765625,-0.24404066801071167,0.013897184282541275,0.13301590085029602
1772883287735124700,1.662124755859375,-0.25473082065582275,0.022907447069883347,0.23686300218105316
1772883287751714000,1.678714111328125,-0.2603813111782074,0.059864792972803116,0.39095374941825867
1772883287768337400,1.69533740234375,-0.23548854887485504,0.024892758578062057,0.5112941861152649
1772883287784946400,1.711946533203125,-0.17409659922122955,-0.098502017557621,0.5372560024261475
1772883287801539800,1.728539794921875,-0.10720685124397278,-0.14355333149433136,0.4957171380519867
1772883287818152400,1.74515234375,-0.11560624837875366,-0.21838432550430298,0.33292156457901
1772883287834756600,1.761756591796875,-0.25182920694351196,-0.4179845452308655,-0.016951510682702065
1772883287851356700,1.778356689453125,-0.4940372705459595,-0.6039929986000061,-0.4306600093841553
1772883287867965000,1.79496484375,-0.741284966468811,-0.5618433356285095,-0.6919575929641724
1772883287884577300,1.811577392578125,-0.8591819405555725,-0.14019356667995453,-0.7218900322914124
1772883287901167400,1.82816748046875,-0.8002334833145142,0.44516804814338684,-0.5873469114303589
1772883287917782500,1.844782470703125,-0.6116288304328918,0.8524624705314636,-0.3634648323059082
1772883287934390500,1.861390625,-0.40714168548583984,1.0137308835983276,-0.1342376321554184
1772883287950977000,1.87797705078125,-0.256868839263916,0.9399688839912415,-0.015882495790719986
1772883287967594800,1.8945947265625,-0.2070833146572113,0.5720753073692322,-0.008704829961061478
1772883287984202200,1.9112021484375,-0.22663100063800812,-0.005650503560900688,0.021074850112199783
1772883288000806700,1.927806640625,-0.24617868661880493,-0.4358523488044739,0.15714508295059204
1772883288017410800,1.944410888671875,-0.25992316007614136,-0.5303837656974792,0.2840523421764374
1772883288034018000,1.96101806640625,-0.2880229651927948,-0.46303585171699524,0.2396118938922882
1772883288050622200,1.977622314453125,-0.33536502718925476,-0.3712533414363861,0.03176499158143997
1772883288067225600,1.9942255859375,-0.3660610020160675,-0.21303924918174744,-0.16111570596694946
1772883288083829500,2.01082958984375,-0.3634648323059082,0.0006108652451075613,-0.2698497176170349
1772883288100436000,2.02743603515625,-0.3332269787788391,0.22342395782470703,-0.29474249482154846
1772883288117046500,2.044046630859375,-0.27061331272125244,0.4024074673652649,-0.2669481039047241
1772883288133642500,2.060642578125,-0.17104226350784302,0.4488332271575928,-0.2255619913339615
1772883288150226400,2.077226318359375,-0.06429356336593628,0.3859141170978546,-0.17088955640792847
1772883288166844200,2.09384423828125,0.03176499158143997,0.28725937008857727,-0.12247848510742188
1772883288183449300,2.110449462890625,0.10293079167604446,0.1817324161529541,-0.11468994617462158
1772883288200051200,2.12705126953125,0.1589776873588562,0.09193521738052368,-0.15347988903522491
1772883288216658400,2.143658447265625,0.20341812074184418,0.036041051149368286,-0.19822576642036438
1772883288233267000,2.160266845703125,0.2519819140434265,0.005803219974040985,-0.20525072515010834
1772883288249860000,2.176860107421875,0.30054569244384766,0.005039638374000788,-0.1823432743549347
1772883288266484200,2.193484130859375,0.3539963960647583,0.05803219974040985,-0.11759155988693237
1772883288283096000,2.210095947265625,0.3827070891857147,0.14676037430763245,-0.03695734590291977
1772883288299702500,2.22670263671875,0.3868304193019867,0.15745051205158234,0.013591751456260681
1772883288316296200,2.243296142578125,0.3891211748123169,0.09896016865968704,0.06185010448098183
1772883288332913200,2.2599130859375,0.3988949954509735,0.028405234217643738,0.09040805697441101
1772883288349494500,2.27649462890625,0.437226802110672,-0.01817324012517929,0.07101308554410934
1772883288366104600,2.2931044921875,0.4801400899887085,-0.05742133408784866,0.027183502912521362
1772883288382718200,2.30971826171875,0.4795292317867279,-0.11041389405727386,0.009773843921720982
1772883288399327000,2.326326904296875,0.4352414906024933,-0.1742493063211441,0.06261368840932846
1772883288415935000,2.34293505859375,0.36850446462631226,-0.27488934993743896,0.10430523753166199
1772883288432539100,2.3595390625,0.3019201457500458,-0.35903605818748474,0.11362093687057495
1772883288449142300,2.376142333984375,0.2840523421764374,-0.2646573781967163,0.11942415684461594
1772883288465750500,2.39275048828125,0.2968805134296417,-0.16279558837413788,0.060933809727430344
1772883288482348500,2.4093486328125,0.30863967537879944,-0.06627888232469559,-0.011453723534941673
1772883288498961200,2.425961181640625,0.3228422701358795,0.11270463466644287,-0.02229658141732216
1772883288515566300,2.44256640625,0.2929098904132843,0.11056660860776901,-0.076052725315094
1772883288532165000,2.4591650390625,0.21868975460529327,-0.027641652151942253,-0.1921171247959137
1772883288548763000,2.475762939453125,0.1618792861700058,-0.16401731967926025,-0.33200526237487793
1772883288565379600,2.492379638671875,0.1420261710882187,-0.3173444867134094,-0.45814892649650574
1772883288581979400,2.5089794921875,0.11713340878486633,-0.41172316670417786,-0.48609602451324463
1772883288598591200,2.52559130859375,0.1365283876657486,-0.30695977807044983,-0.35643985867500305
1772883288615193300,2.542193359375,0.25503623485565186,-0.015577063895761967,-0.0835358202457428
1772883288631784200,2.5587841796875,0.43218716979026794,0.3686571717262268,0.2295326143503189
1772883288648378400,2.57537841796875,0.5647448897361755,0.6241515874862671,0.40225476026535034
1772883288664996900,2.591996826171875,0.6418666839599609,0.5697845816612244,0.4277583956718445
1772883288681587700,2.608587646484375,0.6817256212234497,0.3205515444278717,0.4066835343837738
1772883288698204400,2.625204345703125,0.6969972252845764,0.06414084881544113,0.33567044138908386
1772883288714814200,2.641814208984375,0.6710354685783386,-0.18600846827030182,0.19120082259178162
1772883288731420400,2.65842041015625,0.6238461136817932,-0.24617868661880493,0.05803219974040985
1772883288748010500,2.675010498046875,0.5742133259773254,-0.1540907621383667,-0.009162978269159794
1772883288764640800,2.691640869140625,0.5079344511032104,-0.10812314599752426,-0.058337632566690445
1772883288781240000,2.708239990234375,0.43829581141471863,-0.1339322030544281,-0.10048733651638031
1772883288797856300,2.724856201171875,0.3871358633041382,-0.14248432219028473,-0.12553280591964722
1772883288814454800,2.741454833984375,0.36483925580978394,-0.11224649101495743,-0.16294831037521362
1772883288831063800,2.758063720703125,0.36590829491615295,-0.022907447069883347,-0.18814650177955627
1772883288847657200,2.7746572265625,0.37568211555480957,0.08307767659425735,-0.17623461782932281
1772883288864270600,2.7912705078125,0.3669773042201996,0.11575896292924881,-0.17058411240577698
1772883288880870000,2.807869873046875,0.34987306594848633,0.1059851199388504,-0.15653422474861145
1772883288897469400,2.824469482421875,0.3315471112728119,0.05604688450694084,-0.13668109476566315
1772883288914094600,2.841094482421875,0.3171917796134949,-0.013439035043120384,-0.11209376901388168
1772883288930689300,2.857689208984375,0.31062498688697815,-0.09239336848258972,-0.08231408894062042
1772883288947278300,2.8742783203125,0.27840182185173035,-0.1160643994808197,-0.03436116874217987
1772883288963926500,2.890926513671875,0.23167064785957336,-0.05161811411380768,0.029168816283345222
1772883288980501000,2.9075009765625,0.16432274878025055,0.00366519158706069,0.06459899991750717
1772883288997101600,2.9241015625,0.1059851199388504,-0.001832595793530345,0.06902777403593063
1772883289013714400,2.94071435546875,0.08124507963657379,-0.026114489883184433,0.08491026610136032
1772883289030319400,2.9573193359375,0.06734789162874222,-0.07590000331401825,0.10705413669347763
1772883289046929700,2.9739296875,0.021991148591041565,-0.12751811742782593,0.14828753471374512
1772883289063526400,2.9905263671875,-0.04795292019844055,-0.1999056488275528,0.20922134816646576
1772883289080142000,3.00714208984375,-0.1394299864768982,-0.2496911734342575,0.24236078560352325
1772883289096746500,3.02374658203125,-0.23319780826568604,-0.25564709305763245,0.18555031716823578
1772883289113339600,3.040339599609375,-0.3280346393585205,-0.2643519341945648,0.07895433157682419
1772883289129936400,3.056936279296875,-0.41599923372268677,-0.27000242471694946,0.02825251780450344
1772883289146521900,3.07352197265625,-0.48640143871307373,-0.242513507604599,0.07742717117071152
1772883289163150300,3.090150390625,-0.5093088746070862,-0.09865473955869675,0.19074267148971558
1772883289179756300,3.10675634765625,-0.4889976382255554,0.11820242553949356,0.28878653049468994
1772883289196359200,3.123359130859375,-0.48029279708862305,0.24572055041790009,0.375529408454895
1772883289212964000,3.139964111328125,-0.5198463201522827,0.10766500234603882,0.39187005162239075
1772883289229565700,3.156565673828125,-0.5655084848403931,-0.05910121276974678,0.4340197443962097
1772883289246187500,3.1731875,-0.6004805564880371,-0.12568552792072296,0.47342056035995483
1772883289262796500,3.189796630859375,-0.6630942225456238,-0.20693060755729675,0.3549126982688904
1772883289279393500,3.2063935546875,-0.7872526049613953,-0.3614795207977295,0.10980302840471268
1772883289296006700,3.223006591796875,-0.9069821834564209,-0.43737950921058655,-0.1547016203403473
1772883289312608000,3.23960791015625,-0.967915952205658,-0.24816401302814484,-0.2874121069908142
1772883289329199600,3.25619970703125,-0.9578366875648499,0.0806342139840126,-0.2799290120601654
1772883289345800400,3.272800537109375,-0.8622363209724426,0.3831652104854584,-0.17119498550891876
1772883289362419000,3.2894189453125,-0.7452555894851685,0.498924195766449,-0.022602014243602753
1772883289379028500,3.306028564453125,-0.6146831512451172,0.385303258895874,0.1264491081237793
1772883289395617800,3.32261767578125,-0.4847215712070465,0.14065171778202057,0.280539870262146
1772883289412223000,3.339222900390625,-0.3723223805427551,-0.15943582355976105,0.45891252160072327
1772883289428847400,3.355847412109375,-0.2692388594150543,-0.34116822481155396,0.6183483600616455
1772883289445444900,3.37244482421875,-0.2116648107767105,-0.37950003147125244,0.6417139172554016
1772883289462053400,3.389053466796875,-0.20830504596233368,-0.33429601788520813,0.498924195766449
1772883289478653400,3.4056533203125,-0.2295326143503189,-0.2477058619260788,0.26053401827812195
1772883289495268400,3.422268310546875,-0.24419337511062622,-0.19074267148971558,0.04092797264456749
1772883289511869200,3.438869140625,-0.23640485107898712,-0.08368854224681854,-0.059864792972803116
1772883289528460000,3.4554599609375,-0.235030397772789,0.08155050873756409,-0.07467827945947647
1772883289545076500,3.472076416015625,-0.23197607696056366,0.2356412708759308,-0.08827003091573715
1772883289561667600,3.48866748046875,-0.22663100063800812,0.27718010544776917,-0.10201449692249298
1772883289578285000,3.50528515625,-0.1950187236070633,0.22663100063800812,-0.07284568250179291
1772883289594898200,3.521898193359375,-0.14309518039226532,0.11301007121801376,-0.02626720629632473
1772883289611481300,3.5384814453125,-0.08399397134780884,0.006872233934700489,-0.042760565876960754
1772883289628089000,3.555089111328125,-0.01771509274840355,-0.02672535367310047,-0.09514226019382477
1772883289644695600,3.571695556640625,0.03680463135242462,-0.02076941914856434,-0.13179416954517365
1772883289661301000,3.588301025390625,0.06643159687519073,-0.00366519158706069,-0.11636982858181
1772883289677901800,3.60490185546875,0.08994990587234497,0.017867809161543846,-0.04245513305068016
1772883289694514200,3.62151416015625,0.11102475970983505,0.054825156927108765,0.04199698567390442
1772883289711102200,3.638102294921875,0.11728613078594208,0.10491610318422318,0.06765332818031311
1772883289727708700,3.654708740234375,0.12476922571659088,0.11988230794668198,0.04841107130050659
1772883289752658700,3.67965869140625,0.1420261710882187,0.07009678333997726,0.023976460099220276
1772883289769254400,3.69625439453125,0.1612684279680252,0.016340645030140877,0.05390885844826698
1772883289785851400,3.712851318359375,0.1843285858631134,0.03726277872920036,0.12797626852989197
1772883289802456300,3.729456298828125,0.2073887437582016,0.11331550031900406,0.2480112910270691
1772883289819061800,3.746061767578125,0.24174992740154266,0.18539759516716003,0.3625485301017761
1772883289835666700,3.762666748046875,0.27870726585388184,0.16310101747512817,0.4050036668777466
1772883289852271600,3.779271728515625,0.29397889971733093,0.08765916526317596,0.3822489380836487
1772883289868862700,3.79586279296875,0.30314189195632935,0.01817324012517929,0.33276882767677307
1772883289885481700,3.812481689453125,0.2984076738357544,0.04566217586398125,0.3010038435459137
1772883289902087200,3.829087158203125,0.2825251817703247,0.2099849283695221,0.3081815242767334
1772883289918675700,3.84567578125,0.2594650089740753,0.2838996350765228,0.2819143235683441
1772883289935297800,3.8622978515625,0.25473082065582275,0.3121521472930908,0.2834414839744568
1772883289951902200,3.878902099609375,0.25503623485565186,0.25182920694351196,0.26939156651496887
1772883289968491500,3.895491455078125,0.21960605680942535,0.1059851199388504,0.16172657907009125
1772883289985112300,3.9121123046875,0.14263702929019928,-0.08338310569524765,-0.07177666574716568
1772883290001717200,3.92871728515625,0.030695978552103043,-0.21609358489513397,-0.33139440417289734
1772883290018306000,3.94530615234375,-0.06185010448098183,-0.1693623960018158,-0.44684791564941406
1772883290034932000,3.961931884765625,-0.08674286305904388,0.058795779943466187,-0.4196644127368927
1772883290051529000,3.978529052734375,-0.03649919852614403,0.24984388053417206,-0.28206703066825867
1772883290068138500,3.995138427734375,0.03084869496524334,0.3608686327934265,-0.05696318298578262
1772883290084743000,4.011742919921875,0.09285151958465576,0.3675881624221802,0.13530665636062622
1772883290101331000,4.0283310546875,0.13775011897087097,0.28130343556404114,0.23060162365436554
1772883290117939500,4.044939453125,0.16539175808429718,0.1333213448524475,0.2002110779285431
1772883290134544600,4.061544677734375,0.19624045491218567,0.015577063895761967,0.1313360333442688
1772883290151149600,4.078149658203125,0.24633140861988068,-0.07757988572120667,0.06230825558304787
1772883290167754800,4.094754638671875,0.28008171916007996,-0.12553280591964722,0.029626963660120964
1772883290184359700,4.111359619140625,0.27809640765190125,-0.09437867999076843,0.039706241339445114
1772883290200964900,4.12796484375,0.2545780837535858,-0.058948494493961334,0.07788532227277756
1772883290217561900,4.144561767578125,0.22113321721553802,-0.07360926270484924,0.08200865983963013
1772883290234192100,4.161192138671875,0.18936823308467865,-0.08811730891466141,0.01664607785642147
1772883290250793000,4.17779296875,0.15195272862911224,-0.09193521738052368,-0.10674870014190674
1772883290267400200,4.194400146484375,0.10690141469240189,-0.0630718395113945,-0.19654589891433716
1772883290284004000,4.211004150390625,0.06490442901849747,-0.00366519158706069,-0.20097467303276062
1772883290300608800,4.22760888671875,0.04459316283464432,0.09911288321018219,-0.15561792254447937
1772883290317209900,4.2442099609375,0.040622539818286896,0.12431107461452484,-0.14248432219028473
1772883290333819600,4.260819580078125,0.04566217586398125,0.08689557760953903,-0.14935655891895294
1772883290350424300,4.27742431640625,0.056352317333221436,0.018936822190880775,-0.17760907113552094
1772883290367018000,4.29401806640625,0.0555887371301651,-0.04902193695306778,-0.1992947906255722
1772883290383634200,4.31063427734375,0.05161811411380768,-0.07406741380691528,-0.182648703455925
1772883290400239400,4.3272392578125,0.03237585723400116,-0.078343465924263,-0.11667526513338089
1772883290416845000,4.343844970703125,0.028557950630784035,-0.019547687843441963,-0.03573561832308769
1772883290433450200,4.3604501953125,0.03298672288656235,0.03176499158143997,-0.006108652334660292
1772883290450054400,4.377054443359375,0.02580905705690384,0.03955352306365967,-0.036193765699863434
1772883290466660400,4.393660400390625,0.005192354787141085,-0.026419922709465027,-0.08781187981367111
1772883290483264800,4.4102646484375,-0.019089538604021072,-0.05421429127454758,-0.08246681094169617
1772883290499869700,4.42686962890625,-0.03191770985722542,-0.10247264802455902,-0.038026362657547
1772883290516458800,4.443458740234375,-0.041691552847623825,-0.1189660057425499,0.037110064178705215
1772883290533080600,4.46008056640625,-0.05925392732024193,-0.1281289905309677,0.08888089656829834
1772883290549685000,4.47668505859375,-0.07269296050071716,-0.13515393435955048,0.09422596544027328
1772883290566291000,4.493291015625,-0.09926560521125793,-0.12079860270023346,0.03833179548382759
1772883290582891800,4.509891845703125,-0.13484850525856018,-0.11759155988693237,-0.0858265683054924
1772883290599486700,4.52648681640625,-0.18096883594989777,-0.1111774742603302,-0.16829337179660797
1772883290616078600,4.54307861328125,-0.2168571650981903,-0.08139779418706894,-0.15393804013729095
1772883290632697300,4.559697265625,-0.21303924918174744,0.0013744467869400978,-0.08735372871160507
1772883290649302000,4.576302001953125,-0.1820378452539444,0.06169738993048668,-0.036041051149368286
1772883290665907000,4.592906982421875,-0.14217889308929443,0.10919216275215149,-0.04612032696604729
1772883290682512100,4.60951220703125,-0.10735956579446793,0.14538592100143433,-0.10735956579446793
1772883290699117000,4.626116943359375,-0.07910704612731934,0.19746218621730804,-0.1941024363040924
1772883290715714600,4.642714599609375,-0.07177666574716568,0.18356500566005707,-0.3387247920036316
1772883290732344300,4.65934423828125,-0.07483099400997162,0.10980302840471268,-0.5112941861152649
1772883290748946200,4.6759462890625,-0.07330382615327835,0.02382374368607998,-0.6901249885559082
1772883290765551900,4.6925517578125,-0.06627888232469559,-0.023976460099220276,-0.8391761183738708
1772883290782141400,4.709141357421875,-0.028099801391363144,0.00015271631127689034,-0.8747590184211731
1772883290798761000,4.725760986328125,0.04245513305068016,0.06520986557006836,-0.7915286421775818
1772883290815357000,4.74235693359375,0.12553280591964722,0.08796459436416626,-0.6114761233329773
1772883290831971600,4.7589716796875,0.19120082259178162,0.06459899991750717,-0.3877467215061188
1772883290848576300,4.775576171875,0.2370157092809677,0.020005837082862854,-0.2116648107767105
1772883290865182200,4.79218212890625,0.24037547409534454,-0.020311269909143448,-0.08414668589830399
1772883290881779000,4.808779052734375,0.17256943881511688,-0.05650503560900688,0.021380282938480377
1772883290898391600,4.8253916015625,0.03436116874217987,-0.16722436249256134,0.10002918541431427
1772883290914976500,4.8419765625,-0.12950342893600464,-0.252287358045578,0.18616119027137756
1772883290931604700,4.858604736328125,-0.2926044464111328,-0.24373523890972137,0.22372940182685852
1772883290948204500,4.87520458984375,-0.45494189858436584,-0.22327125072479248,0.13545936346054077
1772883290964812500,4.8918125,-0.6168211698532104,-0.18784105777740479,-0.03878994286060333
1772883290981417200,4.908417236328125,-0.7478517889976501,-0.12660181522369385,-0.2379320114850998
1772883290998022100,4.925022216796875,-0.793666660785675,0.003054326167330146,-0.3568980097770691
1772883291014627300,4.94162744140625,-0.7478517889976501,0.16554448008537292,-0.3459024429321289
1772883291031232300,4.958232177734375,-0.6553056836128235,0.2539672255516052,-0.2399173229932785
1772883291047851800,4.974851806640625,-0.5685628056526184,0.2548835277557373,-0.11209376901388168
1772883291064443400,4.991443359375,-0.5102251768112183,0.1560760736465454,-0.048105638474226
1772883291081030700,5.00803076171875,-0.471129834651947,-0.003817907767370343,-0.055741455405950546
1772883291097639200,5.02463916015625,-0.4358523488044739,-0.12980885803699493,-0.10491610318422318
1772883291114244400,5.041244384765625,-0.3926336467266083,-0.1186605766415596,-0.1547016203403473
1772883291130849300,5.057849365234375,-0.3423899710178375,-0.0754418596625328,-0.20586158335208893
1772883291147436500,5.0744365234375,-0.2886338233947754,-0.04046982154250145,-0.21991148591041565
1772883291164061400,5.0910615234375,-0.2324342280626297,-0.0024434609804302454,-0.19547687470912933
1772883291180662500,5.10766259765625,-0.18112154304981232,0.008246680721640587,-0.1823432743549347
1772883291197269500,5.12426953125,-0.1241583600640297,0.032528575509786606,-0.18219055235385895
1772883291213878000,5.1408779296875,-0.07192938029766083,0.08139779418706894,-0.21380282938480377
1772883291230503000,5.1575029296875,-0.03497203439474106,0.1062905490398407,-0.2741257846355438
1772883291247081500,5.17408154296875,-0.014202617108821869,0.06444628536701202,-0.3078760802745819
1772883291263703600,5.19070361328125,0.016035212203860283,0.01466076634824276,-0.2871066629886627
1772883291280308700,5.207308837890625,0.06368270516395569,-0.016035212203860283,-0.22067506611347198
1772883291296914000,5.223913818359375,0.11667526513338089,-0.06979135423898697,-0.11927144229412079
1772883291313521700,5.240521728515625,0.16401731967926025,-0.10873401165008545,-0.012980886735022068
1772883291330123500,5.25712353515625,0.2028072625398636,-0.1082758679986,0.07483099400997162
1772883291346719500,5.273719482421875,0.2301434874534607,-0.026419922709465027,0.13439035415649414
1772883291363334100,5.290334228515625,0.2535090744495392,0.0936150997877121,0.1339322030544281
1772883291379939000,5.30693896484375,0.26343563199043274,0.14767667651176453,0.07208210229873657
1772883291396544500,5.32354443359375,0.2658790946006775,0.16630806028842926,-0.027641652151942253
1772883291413149200,5.340149169921875,0.25503623485565186,0.15851953625679016,-0.1537853181362152
1772883291429754000,5.356754150390625,0.22602014243602753,0.078343465924263,-0.2692388594150543
1772883291446377700,5.373377685546875,0.21960605680942535,-0.004886921960860491,-0.2652682363986969
1772883291462964500,5.389964599609375,0.22586742043495178,-0.05360342562198639,-0.11713340878486633
1772883291479569400,5.4065693359375,0.25182920694351196,-0.08750644326210022,0.021838432177901268
1772883291496174800,5.4231748046875,0.2811507284641266,-0.1137736514210701,0.06536258012056351
1772883291512755200,5.439755126953125,0.3029891550540924,-0.08888089656829834,0.12476922571659088
1772883291529387500,5.456387451171875,0.3500257730484009,-0.05757404863834381,0.32589662075042725
1772883291545960400,5.47296044921875,0.4421137273311615,0.07987063378095627,0.6641632318496704
1772883291562591700,5.489591796875,0.5351179838180542,0.2808452844619751,0.9385944604873657
1772883291579186400,5.5061865234375,0.5783366560935974,0.27870726585388184,1.0030407905578613
1772883291595791400,5.522791259765625,0.560468852519989,0.09376781433820724,0.9083566069602966
1772883291612393500,5.5393935546875,0.49235737323760986,-0.11957687139511108,0.7215845584869385
1772883291628991700,5.55599169921875,0.40424007177352905,-0.21212296187877655,0.5450445413589478
1772883291645593600,5.572593505859375,0.3219259977340698,-0.17623461782932281,0.42730024456977844
1772883291662211800,5.5892119140625,0.2597704529762268,-0.15012013912200928,0.34284812211990356
1772883291678817000,5.605817138671875,0.21365012228488922,-0.17287486791610718,0.3019201457500458
1772883291695422000,5.622421875,0.1595885455608368,-0.22510384023189545,0.29107728600502014
1772883291712044300,5.639044189453125,0.11316278576850891,-0.26969701051712036,0.24984388053417206
1772883291728614100,5.6556142578125,0.09239336848258972,-0.25671613216400146,0.1569923609495163
1772883291745235700,5.672235595703125,0.07788532227277756,-0.13958270847797394,0.08460483700037003
1772883291761856300,5.688856201171875,0.06902777403593063,0.016493361443281174,0.11759155988693237
1772883291778461000,5.7054609375,0.08765916526317596,0.18997909128665924,0.19837848842144012
1772883291795066400,5.72206640625,0.11759155988693237,0.24358251690864563,0.22739458084106445
1772883291811671300,5.73867138671875,0.14446963369846344,0.2194533348083496,0.17043140530586243
1772883291828260000,5.755260009765625,0.15500704944133759,0.15851953625679016,0.07467827945947647
1772883291844871700,5.77187158203125,0.13775011897087097,0.09285151958465576,0.02580905705690384
1772883291861507800,5.7885078125,0.1270599663257599,0.13988813757896423,0.08689557760953903
1772883291878091300,5.80509130859375,0.14019356667995453,0.2854267954826355,0.20204368233680725
1772883291894696700,5.82169677734375,0.16249015927314758,0.35445454716682434,0.2646573781967163
1772883291911285000,5.838284912109375,0.1696678251028061,0.2756529450416565,0.26343563199043274
1772883291927902500,5.85490234375,0.15317445993423462,0.15103642642498016,0.21151208877563477
1772883291944513800,5.871513671875,0.1189660057425499,0.006261368747800589,0.11682797968387604
1772883291961120000,5.8881201171875,0.0754418596625328,-0.06169738993048668,0.01114829070866108
1772883291977722000,5.90472216796875,0.025045474991202354,-0.07391469180583954,-0.08216137439012527
1772883291994327000,5.9213271484375,-0.03588833287358284,-0.06398813426494598,-0.10430523753166199
1772883292010929000,5.937928955078125,-0.10705413669347763,-0.0913243517279625,-0.07987063378095627
1772883292027524000,5.954524169921875,-0.18784105777740479,-0.14263702929019928,-0.06200282275676727
1772883292044122400,5.971122314453125,-0.2623666226863861,-0.17440202832221985,-0.0959058403968811
1772883292060734700,5.987734619140625,-0.3300199508666992,-0.192422553896904,-0.15790866315364838
1772883292077339000,6.0043388671875,-0.3724750876426697,-0.14278975129127502,-0.18768835067749023
1772883292093943800,6.02094384765625,-0.4138612151145935,-0.03833179548382759,-0.14126259088516235
1772883292110546200,6.037546142578125,-0.4717406928539276,0.1108720451593399,-0.07910704612731934
1772883292127156700,6.05415673828125,-0.5088507533073425,0.20402899384498596,-0.09834930300712585
1772883292143759400,6.07075927734375,-0.5074763298034668,0.20754146575927734,-0.11163562536239624
1772883292160364300,6.0873642578125,-0.46471574902534485,0.17821992933750153,-0.04856378585100174
1772883292176969200,6.10396923828125,-0.408363401889801,0.13927727937698364,-0.0006108652451075613
1772883292193567200,6.120567138671875,-0.38026362657546997,0.02733621932566166,-0.049785517156124115
1772883292210180000,6.13718017578125,-0.3845396637916565,-0.0708603709936142,-0.18249599635601044
1772883292226798600,6.153798583984375,-0.3799581825733185,0.01191187184303999,-0.3306308090686798
1772883292243400200,6.170400146484375,-0.3546072840690613,0.22113321721553802,-0.4011857509613037
1772883292260011300,6.18701123046875,-0.318566232919693,0.40286561846733093,-0.37201693654060364
1772883292276612600,6.203612548828125,-0.25931230187416077,0.46181413531303406,-0.24236078560352325
1772883292293219300,6.22021923828125,-0.16798794269561768,0.3701843321323395,-0.0032070425804704428
1772883292309809400,6.236809326171875,-0.07956519722938538,0.23258693516254425,0.29993483424186707
1772883292326425000,6.253425048828125,-0.032528575509786606,0.10293079167604446,0.5412266254425049
1772883292343034600,6.27003466796875,-0.03191770985722542,0.033597588539123535,0.6207917928695679
1772883292359641600,6.2866416015625,-0.04886921867728233,-0.021074850112199783,0.5558874011039734
1772883292376243700,6.30324365234375,-0.10873401165008545,-0.08704829961061478,0.3672827184200287
1772883292392849000,6.319848876953125,-0.1872301995754242,-0.1791362315416336,0.06963863968849182
1772883292409437400,6.3364375,-0.24037547409534454,-0.21823160350322723,-0.164170041680336
1772883292426055400,6.353055419921875,-0.23136521875858307,-0.1362229436635971,-0.20601430535316467
1772883292442665200,6.369665283203125,-0.17592918872833252,0.03039054572582245,-0.10735956579446793
1772883292459255800,6.386255859375,-0.1036943718791008,0.25305092334747314,0.06551529467105865
1772883292475874300,6.402874267578125,-0.04382958263158798,0.35292738676071167,0.18341228365898132
1772883292492479500,6.4194794921875,-0.012217304669320583,0.2606867551803589,0.21334469318389893
1772883292509077000,6.436076904296875,0.01542434748262167,0.09651670604944229,0.18799377977848053
1772883292525690000,6.452690185546875,0.037110064178705215,-0.07819075137376785,0.07528914511203766
1772883292542293200,6.469293212890625,0.027488935738801956,-0.20265454053878784,-0.11621711403131485
1772883292558884400,6.48588427734375,0.012064588256180286,-0.23228150606155396,-0.3197879493236542
1772883292575480600,6.50248046875,0.012522737495601177,-0.10461067408323288,-0.4343251883983612
1772883292592081700,6.51908154296875,0.025045474991202354,0.06887505948543549,-0.4495968222618103
1772883292608695000,6.535695068359375,0.039248090237379074,0.16982053220272064,-0.40882155299186707
1772883292625306600,6.552306640625,0.06994406878948212,0.22128593921661377,-0.3517056703567505
1772883292641911600,6.56891162109375,0.11209376901388168,0.1537853181362152,-0.290313720703125
1772883292658516500,6.5855166015625,0.13897185027599335,0.029626963660120964,-0.20876319706439972
1772883292675108600,6.602108642578125,0.14049901068210602,-0.04001167416572571,-0.13958270847797394
1772883292691726600,6.6187265625,0.1408044397830963,-0.07422012835741043,-0.09911288321018219
1772883292708356000,6.635356201171875,0.1485929638147354,-0.06979135423898697,-0.08414668589830399
1772883292724950800,6.65195068359375,0.16539175808429718,-0.04046982154250145,-0.07269296050071716
1772883292741548300,6.66854833984375,0.17241671681404114,-0.01618792861700058,-0.019089538604021072
1772883292758167800,6.685167724609375,0.18417587876319885,0.003817907767370343,0.040164388716220856
1772883292774765600,6.701765625,0.1794416606426239,0.04917465150356293,0.07422012835741043
1772883292791370800,6.718370849609375,0.14737124741077423,0.13988813757896423,0.096211276948452
1772883292807964400,6.73496435546875,0.09651670604944229,0.1621847152709961,0.06520986557006836
1772883292824581400,6.751581298828125,0.06765332818031311,0.038026362657547,-0.02626720629632473
1772883292841186000,6.76818603515625,0.04856378585100174,-0.07131851464509964,-0.13927727937698364
1772883292857791700,6.784791748046875,0.044287730008363724,-0.07696902006864548,-0.26893341541290283
1772883292874396200,6.801396240234375,0.041233405470848083,0.012828170321881771,-0.34666603803634644
1772883292891001300,6.81800146484375,0.04306599870324135,0.08185594528913498,-0.3608686327934265
1772883292907622400,6.834622314453125,0.06536258012056351,0.11239920556545258,-0.3439171314239502
1772883292924211700,6.851211669921875,0.09010262042284012,0.11575896292924881,-0.2814561724662781
1772883292940812300,6.867812255859375,0.10995574295520782,0.00855211354792118,-0.17730364203453064
1772883292957422300,6.88442236328125,0.10155634582042694,-0.154396191239357,-0.08307767659425735
1772883292974030300,6.9010302734375,0.11316278576850891,-0.20815233886241913,0.02672535367310047
1772883292990631700,6.917631591796875,0.1699732542037964,-0.0065668015740811825,0.20112738013267517
1772883293007220500,6.934220458984375,0.26022860407829285,0.3104722499847412,0.4508185386657715
1772883293023842300,6.95084228515625,0.32559117674827576,0.4199698567390442,0.6227771043777466
1772883293040429800,6.967429931640625,0.3773620128631592,0.26053401827812195,0.6372851729393005
1772883293057038600,6.98403857421875,0.4132503271102905,0.004581489134579897,0.5694791078567505
1772883293073643500,7.0006435546875,0.4366159439086914,-0.1618792861700058,0.47571131587028503
1772883293090248400,7.01724853515625,0.4337143301963806,-0.2200642079114914,0.413555771112442
1772883293106837800,7.033837646484375,0.4112650156021118,-0.22663100063800812,0.3904955983161926
1772883293123448300,7.0504482421875,0.3998112976551056,-0.23167064785957336,0.34406983852386475
1772883293140064000,7.06706396484375,0.37980547547340393,-0.2739730477333069,0.2629774808883667
1772883293156669000,7.0836689453125,0.3649919927120209,-0.28298333287239075,0.21502456068992615
1772883293173273900,7.10027392578125,0.35262197256088257,-0.24663683772087097,0.1598939746618271
1772883293189882400,7.11688232421875,0.34116822481155396,-0.17577648162841797,0.09010262042284012
1772883293206481700,7.133481689453125,0.3153591752052307,-0.07635815441608429,0.06215553730726242
1772883293223103200,7.150103271484375,0.2926044464111328,0.046273041516542435,0.08307767659425735
1772883293239710200,7.166710205078125,0.2845104932785034,0.08643743395805359,0.1007927656173706
1772883293256311000,7.18331103515625,0.28069257736206055,0.058184914290905,0.06414084881544113
1772883293272918300,7.199918212890625,0.2704605758190155,0.0633772686123848,0.0003054326225537807
1772883293289523200,7.216523193359375,0.2503020465373993,0.08292495459318161,-0.01237002108246088
1772883293306112000,7.233112060546875,0.23319780826568604,0.09056077152490616,0.025503624230623245
1772883293322733600,7.249733642578125,0.21441370248794556,0.08643743395805359,0.03481931984424591
1772883293339339500,7.266339599609375,0.18631389737129211,0.11484266817569733,0.015118914656341076
1772883293355942700,7.282942626953125,0.1661553531885147,0.16752979159355164,0.001832595793530345
1772883293372548600,7.299548583984375,0.15561792254447937,0.18081611394882202,0.018478672951459885
1772883293389153300,7.3161533203125,0.1235474944114685,0.13698652386665344,0.03894266113638878
1772883293405731300,7.3327314453125,0.05619960278272629,0.08720101416110992,0.03741549700498581
1772883293422364000,7.349364013671875,-0.024129176512360573,0.09025534242391586,0.02275473065674305
1772883293438964700,7.36596484375,-0.07864890247583389,0.09407325088977814,-0.004581489134579897
1772883293455578000,7.382578125,-0.09941831976175308,0.05971207842230797,0.01618792861700058
1772883293472192000,7.39919189453125,-0.10277807712554932,-0.016035212203860283,0.06643159687519073
1772883293488784000,7.415783935546875,-0.13744467496871948,-0.12629638612270355,0.047800205647945404
1772883293505375200,7.432375244140625,-0.22143864631652832,-0.18051068484783173,-0.00855211354792118
1772883293521991000,7.448990966796875,-0.2808452844619751,-0.13897185027599335,-0.01618792861700058
1772883293538582500,7.46558251953125,-0.2932153046131134,0.010842857882380486,0.07360926270484924
1772883293555193900,7.48219384765625,-0.2825251817703247,0.13729196786880493,0.1788308024406433
1772883293571796000,7.4987958984375,-0.2929098904132843,0.10705413669347763,0.16264286637306213
1772883293588400600,7.515400634765625,-0.30741792917251587,0.07727445662021637,0.07376197725534439
1772883293604996600,7.53199658203125,-0.3465133011341095,0.047800205647945404,-0.058795779943466187
1772883293621611300,7.548611328125,-0.4219551682472229,-0.010690141469240189,-0.252287358045578
1772883293638216000,7.5652158203125,-0.5054910182952881,-0.05543602257966995,-0.4509712755680084
1772883293654821000,7.581821044921875,-0.5459607839584351,0.024892758578062057,-0.5607742667198181
1772883293671426000,7.598426025390625,-0.5406157374382019,0.22647829353809357,-0.5484042763710022
1772883293688048400,7.61504833984375,-0.5181664228439331,0.35033121705055237,-0.4703662395477295
1772883293704647700,7.631647705078125,-0.46792277693748474,0.3767511546611786,-0.37827831506729126
1772883293721255700,7.648255615234375,-0.3784310221672058,0.32039880752563477,-0.29733866453170776
1772883293737853700,7.664853759765625,-0.2638937830924988,0.16035212576389313,-0.19364428520202637
1772883293754472000,7.681471923828125,-0.13973543047904968,0.006719517521560192,-0.015271631069481373
1772883293771043300,7.698043212890625,-0.06551529467105865,-0.14294247329235077,0.1739438772201538
1772883293787671000,7.714671142578125,-0.07131851464509964,-0.3237585723400116,0.294437050819397
1772883293804267800,7.731267822265625,-0.10552696883678436,-0.3982841372489929,0.3116939961910248
1772883293820885500,7.747885498046875,-0.1394299864768982,-0.4004221558570862,0.20066922903060913
1772883293837497300,7.764497314453125,-0.16630806028842926,-0.4105014503002167,0.016798794269561768
1772883293854089500,7.78108935546875,-0.1950187236070633,-0.4535674452781677,-0.13148874044418335
1772883293870687700,7.797687744140625,-0.24633140861988068,-0.37888917326927185,-0.1771509200334549
1772883293887305700,7.8143056640625,-0.30833423137664795,-0.247094988822937,-0.14477506279945374
1772883293903894500,7.83089453125,-0.35262197256088257,-0.04535674303770065,-0.07513642311096191
1772883293920516000,7.84751611328125,-0.36102136969566345,0.08017606288194656,-0.027488935738801956
1772883293937121800,7.864121826171875,-0.3430008292198181,0.09376781433820724,-0.023976460099220276
1772883293953726200,7.880726318359375,-0.3168863356113434,0.02886338345706463,-0.04489859566092491
1772883293970316500,7.897316650390625,-0.3153591752052307,-0.04566217586398125,-0.08078692853450775
1772883293986936000,7.91393603515625,-0.3338378667831421,-0.08200865983963013,-0.12828169763088226
1772883294003556900,7.930556884765625,-0.34605515003204346,-0.07666359096765518,-0.18448130786418915
1772883294020129300,7.94712939453125,-0.36651915311813354,0.02977968007326126,-0.2050980031490326
1772883294036738000,7.963738037109375,-0.3969096839427948,0.16737708449363708,-0.19975294172763824
1772883294053343000,7.980343017578125,-0.3956879675388336,0.20005837082862854,-0.18829920887947083
1772883294069951200,7.996951171875,-0.3344487249851227,0.16065755486488342,-0.10965031385421753
1772883294086553000,8.013552978515625,-0.24908030033111572,0.08979719132184982,-0.02015855349600315
1772883294103156500,8.030156494140625,-0.19379699230194092,0.04184427112340927,0.013897184282541275
1772883294119763200,8.04676318359375,-0.17959438264369965,0.035124752670526505,-0.013591751456260681
1772883294136369200,8.063369140625,-0.16691893339157104,0.046273041516542435,-0.07040221989154816
1772883294152973300,8.079973388671876,-0.13637566566467285,0.11163562536239624,-0.09514226019382477
1772883294169578500,8.09657861328125,-0.09025534242391586,0.12217304855585098,-0.0858265683054924
1772883294186218200,8.11321826171875,-0.053297992795705795,0.08231408894062042,-0.03344487398862839
1772883294202788000,8.1297880859375,-0.01160643994808197,-0.008857546374201775,0.032681290060281754
1772883294219407600,8.14640771484375,0.02519819140434265,-0.12889257073402405,0.06398813426494598
1772883294236008200,8.16300830078125,0.08552113175392151,-0.2223549485206604,0.07681630551815033
1772883294252621600,8.17962158203125,0.16142113506793976,-0.18600846827030182,0.10308351367712021
1772883294269190100,8.196190185546875,0.2278527319431305,-0.04749477282166481,0.07696902006864548
1772883294285810700,8.212810791015626,0.2669481039047241,-0.03237585723400116,-0.06627888232469559
1772883294302433500,8.22943359375,0.2926044464111328,-0.00855211354792118,-0.11178833991289139
1772883294319037200,8.246037109375,0.31871894001960754,-0.07452555745840073,-0.11820242553949356
1772883294335638800,8.262638671875,0.3075706362724304,-0.23365595936775208,-0.20005837082862854
1772883294352252000,8.279251953125,0.28817567229270935,-0.2964223623275757,-0.323147714138031
1772883294368867300,8.295867431640625,0.266642689704895,-0.18448130786418915,-0.34025195240974426
1772883294385441500,8.312441650390625,0.251676470041275,0.054825156927108765,-0.2915354371070862
1772883294402046500,8.32904638671875,0.2509129047393799,0.21349740028381348,-0.2096794992685318
1772883294418668300,8.345668212890626,0.2603813111782074,0.3263547718524933,-0.006108652334660292
1772883294435274000,8.36227392578125,0.28695395588874817,0.4242459237575531,0.33475416898727417
1772883294451878400,8.37887841796875,0.3090978264808655,0.42302417755126953,0.7009678483009338
1772883294468480300,8.395480224609376,0.3295617997646332,0.3399465084075928,0.9547823667526245
1772883294485088500,8.412088623046875,0.3419318199157715,0.22708915174007416,1.0390818119049072
1772883294501694500,8.428694580078124,0.32650747895240784,0.0910189226269722,0.9137017130851746
1772883294518285000,8.44528515625,0.32421672344207764,-0.019089538604021072,0.6809620261192322
1772883294534887200,8.46188720703125,0.32879820466041565,-0.04444044828414917,0.5100724697113037
1772883294551494400,8.478494384765625,0.3205515444278717,0.054825156927108765,0.4288274049758911
1772883294568104000,8.49510400390625,0.30512720346450806,0.11652254313230515,0.3194825351238251
1772883294584692200,8.511692138671876,0.29245173931121826,0.06123924255371094,0.2054034322500229
1772883294601298000,8.5282978515625,0.28008171916007996,-0.048105638474226,0.14905111491680145
1772883294617915600,8.54491552734375,0.28787025809288025,-0.15790866315364838,0.07666359096765518
1772883294634518000,8.56151806640625,0.28420504927635193,-0.2054034322500229,-0.027183502912521362
1772883294651128300,8.57812841796875,0.2675589919090271,-0.14569136500358582,-0.12110403180122375
1772883294667730700,8.594730712890625,0.2509129047393799,-0.05345070734620094,-0.16233743727207184
1772883294684353000,8.61135302734375,0.2684752643108368,0.03649919852614403,-0.13729196786880493
1772883294700950300,8.6279501953125,0.3208569586277008,0.04596760869026184,-0.1235474944114685
1772883294717564000,8.64456396484375,0.3677408695220947,-0.014202617108821869,-0.18631389737129211
1772883294734156500,8.661156494140625,0.3663664162158966,-0.08567385375499725,-0.2373211532831192
1772883294750778000,8.677778076171874,0.3205515444278717,-0.14004085958003998,-0.19120082259178162
1772883294767341000,8.694341064453125,0.2977968156337738,-0.12095131725072861,-0.11514809727668762
1772883294783980300,8.710980224609376,0.3127630054950714,-0.04734205827116966,-0.0064140851609408855
1772883294800585500,8.72758544921875,0.3576616048812866,0.052839845418930054,0.11636982858181
1772883294817189600,8.744189697265625,0.35781431198120117,0.08765916526317596,0.17302757501602173
1772883294833791200,8.760791259765625,0.30863967537879944,0.016798794269561768,0.1342376321554184
1772883294850391000,8.77739111328125,0.2499966025352478,-0.07360926270484924,0.09147707372903824
1772883294866987500,8.793987548828126,0.1892155110836029,-0.12782354652881622,0.08994990587234497
1772883294883611600,8.810611572265625,0.1264491081237793,-0.1215621829032898,0.13209961354732513
1772883294900215300,8.82721533203125,0.0659734457731247,-0.1010981947183609,0.17898350954055786
1772883294916820700,8.84382080078125,-0.01038470957428217,-0.17837265133857727,0.1742493063211441
1772883294933422300,8.86042236328125,-0.12308934330940247,-0.25244006514549255,0.1385136991739273
1772883294950034000,8.877033935546875,-0.26190847158432007,-0.28298333287239075,0.00015271631127689034
1772883294966619400,8.893619384765625,-0.3865249752998352,-0.30604347586631775,-0.1615738570690155
1772883294983241000,8.910240966796875,-0.45173484086990356,-0.28588494658470154,-0.18051068484783173
1772883294999828700,8.926828857421874,-0.4404338300228119,-0.15286903083324432,-0.052381694316864014
1772883295016437500,8.9434375,-0.4027129113674164,0.01542434748262167,0.06261368840932846
1772883295033037800,8.960037841796876,-0.446389764547348,0.04444044828414917,0.08078692853450775
1772883295057948700,8.98494873046875,-0.5230533480644226,0.26481008529663086,0.049785517156124115
1772883295074556200,9.00155615234375,-0.5526803135871887,0.2623666226863861,-0.1235474944114685
1772883295091161300,9.018161376953126,-0.6238461136817932,0.05513058975338936,-0.2877175211906433
1772883295107766000,9.03476611328125,-0.6664539575576782,-0.0679587572813034,-0.3194825351238251
1772883295124370400,9.051370361328125,-0.6467535495758057,0.014049900695681572,-0.3153591752052307
1772883295140976400,9.067976318359374,-0.6116288304328918,0.11728613078594208,-0.3220787048339844
1772883295157568300,9.084568359375,-0.5380195379257202,0.33200526237487793,-0.26801711320877075
1772883295174204000,9.101203857421876,-0.4505131244659424,0.46410486102104187,-0.12308934330940247
1772883295190804700,9.1178046875,-0.3631593883037567,0.42149701714515686,0.031001411378383636
1772883295207410400,9.134410400390625,-0.21334469318389893,0.29535335302352905,0.18356500566005707
1772883295224015600,9.151015625,-0.08475755155086517,0.11621711403131485,0.3066543638706207
1772883295240616200,9.1676162109375,-0.017409659922122955,-0.06062837690114975,0.38347065448760986
1772883295257222700,9.18422265625,-0.02580905705690384,-0.20555615425109863,0.43768495321273804
1772883295273836800,9.2008369140625,-0.11484266817569733,-0.20952677726745605,0.46242499351501465
1772883295290436000,9.21743603515625,-0.18997909128665924,-0.16630806028842926,0.395077109336853
1772883295307040500,9.23404052734375,-0.21930062770843506,-0.14446963369846344,0.29367345571517944
1772883295323645200,9.250645263671874,-0.1595885455608368,-0.07773260027170181,0.12232576310634613
1772883295340251000,9.2672509765625,-0.09437867999076843,0.08888089656829834,0.036193765699863434
1772883295356856000,9.28385595703125,-0.07956519722938538,0.38499781489372253,0.07437284290790558
1772883295373461500,9.30046142578125,-0.12247848510742188,0.48945578932762146,0.289244681596756
1772883295390065000,9.31706494140625,-0.13988813757896423,0.13561208546161652,0.2353358417749405
1772883295406671400,9.33367138671875,-0.09269879758358002,0.009621127508580685,0.05115996301174164
1772883295423272700,9.350272705078124,-0.00931569468230009,0.005192354787141085,-0.23747386038303375
1772883295439885300,9.36688525390625,-0.014355333521962166,0.04245513305068016,-0.4544837474822998
1772883295456486000,9.38348583984375,0.02428189292550087,0.019394971430301666,-0.49266281723976135
