time,seconds_elapsed,z,y,x
1772883286178366700,0.10536669921875,10.119845390319824,3.7950167655944824,1.0265209674835205
1772883286194998300,0.121998291015625,9.747760772705078,3.968496322631836,0.9678967595100403
1772883286211607800,0.13860791015625,9.749555587768555,3.8494534492492676,0.8668000102043152
1772883286228225000,0.15522509765625,10.007980346679688,3.8907296657562256,0.23389841616153717
1772883286244821200,0.1718212890625,10.384251594543457,3.7046875953674316,0.12083754688501358
1772883286261414400,0.188414306640625,10.914261817932129,3.029313564300537,0.26560330390930176
1772883286278027800,0.20502783203125,11.149955749511719,2.500499725341797,0.35114672780036926
1772883286294635500,0.221635498046875,11.13440227508545,2.1206390857696533,0.5401797294616699
1772883286311209000,0.238208984375,11.218151092529297,1.8131613731384277,0.7812566161155701
1772883286327850500,0.2548505859375,11.059027671813965,1.633699655532837,0.8333004713058472
1772883286344466200,0.271466064453125,10.491331100463867,1.6079767942428589,0.9367900490760803
1772883286361055200,0.28805517578125,9.743574142456055,1.657029628753662,0.9409775137901306
1772883286377660400,0.304660400390625,9.32722282409668,1.7001005411148071,1.0013962984085083
1772883286394265300,0.321265380859375,9.390034675598145,1.689931035041809,1.1204391717910767
1772883286410869200,0.337869140625,9.69093132019043,1.7222341299057007,1.114457130432129
1772883286427462000,0.3544619140625,9.809974670410156,1.7940187454223633,1.262213945388794
1772883286444081000,0.371080810546875,9.833304405212402,1.8747764825820923,1.3968101739883423
1772883286460691200,0.387691162109375,9.638289451599121,1.8903298377990723,1.5655041933059692
1772883286477290200,0.404290283203125,9.376275062561035,1.9142581224441528,1.815554141998291
1772883286493880000,0.420880126953125,9.040681838989258,1.9950158596038818,1.975873351097107
1772883286510499600,0.43749951171875,8.81934642791748,2.1020946502685547,2.0883359909057617
1772883286527072300,0.454072265625,8.786444664001465,2.08713960647583,2.121835470199585
1772883286543710200,0.470710205078125,8.803194046020508,1.8783657550811768,1.8903298377990723
1772883286560313900,0.48731396484375,8.645268440246582,1.755135416984558,1.5463616847991943
1772883286576922000,0.503922119140625,8.555537223815918,1.8239290714263916,1.2269197702407837
1772883286593527000,0.520527099609375,8.369495391845703,1.9250258207321167,0.8697910308837891
1772883286610148900,0.53714892578125,8.248658180236816,2.20737886428833,0.7387840151786804
1772883286626751500,0.55375146484375,8.306085586547852,2.4945175647735596,0.8261220455169678
1772883286643340000,0.570340087890625,8.398807525634766,2.723032236099243,1.0618150234222412
1772883286659944200,0.586944091796875,8.726025581359863,2.9874391555786133,1.3537393808364868
1772883286676534300,0.6035341796875,8.959325790405273,3.084348440170288,1.511067509651184
1772883286693143300,0.620143310546875,9.049654960632324,3.053839921951294,1.3094722032546997
1772883286709748500,0.63674853515625,9.07418155670166,2.973680257797241,1.1461620330810547
1772883286726339800,0.65333984375,9.035298347473145,2.988037347793579,1.069591760635376
1772883286742961000,0.6699609375,9.025128364562988,3.026322364807129,1.1180464029312134
1772883286759559400,0.686559326171875,9.125029563903809,3.0658040046691895,1.1084750890731812
1772883286776184600,0.7031845703125,9.072985649108887,2.984447956085205,1.0360921621322632
1772883286792783400,0.719783447265625,9.105886459350586,3.0041887760162354,0.9499505758285522
1772883286809390600,0.736390625,9.148957252502441,2.9958138465881348,0.9116654396057129
1772883286825985800,0.75298583984375,9.000003814697266,2.9898319244384766,0.8213363885879517
1772883286842585900,0.7695859375,8.679964065551758,3.122035264968872,0.6089733839035034
1772883286859207400,0.78620751953125,8.5704927444458,3.2997024059295654,0.4049852192401886
1772883286875810800,0.802810791015625,8.998209953308105,3.4480574131011963,0.4133601188659668
1772883286892416300,0.819416259765625,9.397810935974121,3.562912940979004,0.34995031356811523
1772883286909004500,0.836004638671875,9.385847091674805,3.7010984420776367,0.4085744619369507
1772883286925609700,0.852609619140625,9.280562400817871,3.728017568588257,0.45224347710609436
1772883286942230800,0.869230712890625,9.378069877624512,3.600599765777588,0.388235479593277
1772883286958835000,0.8858349609375,10.128219604492188,3.379862070083618,0.28235307335853577
1772883286975445500,0.902445556640625,10.98305606842041,3.3583266735076904,-0.038285162299871445
1772883286992035000,0.91903515625,11.072188377380371,3.200998544692993,-0.006580262444913387
1772883287008650500,0.935650390625,10.920244216918945,3.211766242980957,0.22851456701755524
1772883287025241000,0.952240966796875,10.798210144042969,3.3541390895843506,0.22552353143692017
1772883287041861600,0.968861572265625,10.392626762390137,3.3296127319335938,0.3284149169921875
1772883287058465300,0.98546533203125,10.13479995727539,3.326023578643799,0.41575294733047485
1772883287075078100,1.002078125,10.345368385314941,3.0975089073181152,0.5419743061065674
1772883287091662300,1.018662353515625,11.178668975830078,2.434098720550537,0.8721838593482971
1772883287108280300,1.0352802734375,11.896515846252441,1.6660027503967285,0.924227774143219
1772883287124872000,1.051871826171875,12.2135648727417,1.0163514614105225,0.6693921089172363
1772883287141492000,1.068491943359375,12.142976760864258,0.5545366406440735,0.24047867953777313
1772883287158079500,1.08507958984375,11.186446189880371,0.43190449476242065,-0.08015955984592438
1772883287174689500,1.101689453125,9.672985076904297,0.7459624409675598,-0.10289137065410614
1772883287191292000,1.1182919921875,8.62313461303711,1.1168500185012817,-0.04666004329919815
1772883287207901700,1.134901611328125,8.249256134033203,1.4333007335662842,0.029910283163189888
1772883287224492000,1.151491943359375,8.24267578125,1.5517455339431763,0.10229317098855972
1772883287241120800,1.168120849609375,8.339585304260254,1.5140584707260132,0.16390834748744965
1772883287257715000,1.18471484375,8.431110382080078,1.5092729330062866,0.30209386348724365
1772883287274336300,1.201336181640625,8.578866958618164,1.5583257675170898,0.3397808074951172
1772883287290935300,1.217935302734375,8.984451293945312,1.6157535314559937,0.3188436031341553
1772883287307542300,1.234542236328125,9.166305541992188,1.594218134880066,0.2267199456691742
1772883287324140300,1.251140380859375,9.078967094421387,1.5948163270950317,0.10767702013254166
1772883287340725800,1.267725830078125,9.012566566467285,1.537388563156128,-0.007178467698395252
1772883287357345800,1.284345703125,9.112466812133789,1.6091731786727905,0.15074782073497772
1772883287373955600,1.30095556640625,9.30748176574707,1.724626898765564,0.32243284583091736
1772883287390551800,1.3175517578125,9.45583724975586,1.7407784461975098,0.2883351147174835
1772883287407160600,1.33416064453125,9.575477600097656,1.6857435703277588,0.17228323221206665
1772883287423779300,1.350779296875,9.434301376342773,1.8041882514953613,0.13100704550743103
1772883287440369700,1.36736962890625,9.053244590759277,1.999801516532898,0.24466611444950104
1772883287456982800,1.383982666015625,8.895915985107422,2.241476535797119,0.3523431420326233
1772883287473590500,1.400590576171875,8.793025016784668,2.4119651317596436,0.4450650215148926
1772883287490189800,1.41718994140625,8.61894702911377,2.5435705184936523,0.5042873620986938
1772883287506808000,1.43380810546875,8.387441635131836,2.664407968521118,0.6215356588363647
1772883287523374300,1.450374267578125,8.240880966186523,2.7738797664642334,0.4893322288990021
1772883287540013300,1.467013427734375,8.13260555267334,2.9168508052825928,0.39062830805778503
1772883287556619800,1.483619873046875,8.4771728515625,3.1411778926849365,0.34217363595962524
1772883287573222400,1.500222412109375,8.992227554321289,3.2745778560638428,0.4983053207397461
1772883287589814300,1.516814208984375,9.312865257263184,3.3481571674346924,0.7124629616737366
1772883287606434600,1.5334345703125,9.701101303100586,3.4265220165252686,1.0498509407043457
1772883287623033000,1.550033203125,10.199406623840332,3.486940860748291,1.3106685876846313
1772883287639643600,1.5666435546875,10.454840660095215,3.431307554244995,1.4141582250595093
1772883287656232400,1.583232421875,10.473982810974121,3.366701364517212,1.1838489770889282
1772883287672841700,1.599841796875,10.450055122375488,3.253640651702881,0.9296116232872009
1772883287689442000,1.616442138671875,10.551151275634766,3.2171499729156494,0.857228696346283
1772883287706055400,1.633055419921875,10.4823579788208,3.090928554534912,0.9906286001205444
1772883287722637000,1.649636962890625,10.28315544128418,3.040081262588501,1.1060823202133179
1772883287739260400,1.666260498046875,10.16291618347168,3.039483070373535,1.0061819553375244
1772883287755870000,1.682869873046875,9.815957069396973,3.0801608562469482,0.7836494445800781
1772883287772484400,1.699484375,9.269196510314941,2.8414769172668457,0.584446907043457
1772883287789108700,1.716108642578125,9.057432174682617,3.071187973022461,0.31465616822242737
1772883287805692200,1.732692138671875,8.83669376373291,3.4402806758880615,0.5527420043945312
1772883287822302200,1.74930224609375,8.411369323730469,3.442673683166504,1.4404792785644531
1772883287838904600,1.765904541015625,8.436494827270508,3.417548894882202,2.2193429470062256
1772883287855509500,1.782509521484375,9.471988677978516,2.9276185035705566,2.630908489227295
1772883287872105000,1.79910498046875,10.593624114990234,2.0129621028900146,2.4646072387695312
1772883287888735500,1.815735595703125,11.029117584228516,1.2999008893966675,1.8352949619293213
1772883287905310500,1.832310546875,10.625926971435547,0.8093722462654114,1.0019944906234741
1772883287921917000,1.8489169921875,9.809974670410156,0.9649057388305664,0.26620152592658997
1772883287938532000,1.865531982421875,8.800801277160645,1.3621143102645874,0.059820566326379776
1772883287955149300,1.8821494140625,7.957331657409668,1.965105652809143,0.13100704550743103
1772883287971745500,1.89874560546875,7.883154392242432,2.389233350753784,0.23030917346477509
1772883287988349200,1.91534912109375,8.599804878234863,2.4675984382629395,0.355932354927063
1772883288004953900,1.931953857421875,9.281160354614258,2.4873390197753906,0.6436693072319031
1772883288021563000,1.94856298828125,9.262018203735352,2.5710878372192383,0.9122636318206787
1772883288038166800,1.965166748046875,8.96949577331543,2.6811578273773193,1.0917253494262695
1772883288054776000,1.981776123046875,9.198010444641113,2.7314071655273438,1.0671988725662231
1772883288071375000,1.998375,9.586843490600586,2.602792739868164,0.9254241585731506
1772883288087969300,2.01496923828125,9.836894035339355,2.4640090465545654,0.7076773047447205
1772883288104566800,2.03156689453125,9.784252166748047,2.365903377532959,0.3720839321613312
1772883288121191000,2.04819091796875,9.442078590393066,2.3461625576019287,-0.013160524889826775
1772883288137780500,2.064780517578125,9.079565048217773,2.4400808811187744,-0.30209386348724365
1772883288154388500,2.081388427734375,8.770293235778809,2.5669004917144775,-0.3858426511287689
1772883288170994000,2.097993896484375,8.500502586364746,2.7020950317382812,-0.32123643159866333
1772883288187599400,2.114599365234375,8.33719253540039,2.7804598808288574,-0.20458634197711945
1772883288204192500,2.131192626953125,8.38145923614502,2.7415764331817627,-0.06161518394947052
1772883288220799000,2.147799072265625,8.622536659240723,2.6763720512390137,0.017946170642971992
1772883288237414000,2.164413818359375,8.848658561706543,2.6356940269470215,0.04486542567610741
1772883288254036000,2.181035888671875,9.050253868103027,2.6039891242980957,0.1010967567563057
1772883288270620700,2.19762060546875,9.112466812133789,2.651247501373291,0.24885354936122894
1772883288287225600,2.2142255859375,8.9910306930542,2.7930221557617188,0.32721850275993347
1772883288303854300,2.230854248046875,8.85523796081543,2.868396043777466,0.25244277715682983
1772883288320430300,2.247430419921875,8.755936622619629,2.9934210777282715,0.10049854964017868
1772883288337061600,2.2640615234375,8.533403396606445,3.077768087387085,0.006580262444913387
1772883288353661400,2.280661376953125,8.436494827270508,3.1716864109039307,0.0891326442360878
1772883288370266000,2.29726611328125,8.613563537597656,3.2859437465667725,0.3858426511287689
1772883288386856200,2.313856201171875,9.115457534790039,3.417548894882202,0.737587571144104
1772883288403462000,2.3304619140625,9.42772102355957,3.438486099243164,0.9511470198631287
1772883288420075800,2.34707568359375,9.781859397888184,3.47019100189209,1.0402796268463135
1772883288436688400,2.3636884765625,10.342975616455078,3.5503506660461426,0.7794619798660278
1772883288453291500,2.38029150390625,10.563115119934082,3.5060834884643555,0.6299105882644653
1772883288469897000,2.39689697265625,10.834700584411621,3.322434186935425,0.6173482537269592
1772883288486490600,2.41349072265625,11.3240327835083,3.4576287269592285,0.5054838061332703
1772883288503106300,2.430106201171875,11.22652530670166,3.3505499362945557,0.6203392744064331
1772883288519723800,2.446723876953125,10.932806968688965,3.222533941268921,0.7214360237121582
1772883288536320300,2.4633203125,10.852048873901367,2.916252613067627,0.6095715761184692
1772883288552924000,2.479923828125,10.934002876281738,2.1032910346984863,0.607776939868927
1772883288569525800,2.49652587890625,11.436495780944824,1.4135600328445435,0.8105686902999878
1772883288586118700,2.51311865234375,12.07059383392334,0.7740781307220459,0.8309076428413391
1772883288602738200,2.52973828125,12.251252174377441,0.22372891008853912,0.49591249227523804
1772883288619336000,2.5463359375,11.712268829345703,-0.02273181453347206,0.06640082597732544
1772883288635937300,2.562937255859375,10.322636604309082,0.04486542567610741,-0.0975075215101242
1772883288652541400,2.57954150390625,9.013164520263672,0.41934216022491455,-0.21655045449733734
1772883288669147400,2.5961474609375,8.277970314025879,0.7621139883995056,-0.4247260093688965
1772883288685753300,2.61275341796875,7.9244303703308105,0.973878800868988,-0.4450650215148926
1772883288702356200,2.629356201171875,7.9250288009643555,1.2317054271697998,-0.33798620104789734
1772883288718947600,2.645947509765625,8.3629150390625,1.2239288091659546,-0.015553346835076809
1772883288735563300,2.662563232421875,8.922237396240234,1.1174482107162476,0.3200400173664093
1772883288752186600,2.6791865234375,9.19980525970459,1.1766705513000488,0.4863412082195282
1772883288768787700,2.69578759765625,9.250652313232422,1.2675977945327759,0.5443671345710754
1772883288785378800,2.71237890625,9.32303524017334,1.2161520719528198,0.48574298620224
1772883288801997800,2.728997802734375,9.365508079528809,1.212562918663025,0.3517449200153351
1772883288818598400,2.745598388671875,9.306883811950684,1.2885349988937378,0.36251261830329895
1772883288835214600,2.762214599609375,9.299705505371094,1.389631748199463,0.3248256742954254
1772883288851814000,2.77881396484375,9.114261627197266,1.5882359743118286,0.34636107087135315
1772883288868417500,2.79541748046875,8.968897819519043,1.700698733329773,0.4247260093688965
1772883288885011700,2.81201171875,8.847461700439453,1.8376877307891846,0.5078766345977783
1772883288901636400,2.82863623046875,8.803792953491211,1.8987047672271729,0.5563312768936157
1772883288918231800,2.845231689453125,8.740981101989746,1.9124635457992554,0.5754738450050354
1772883288934844400,2.861844482421875,8.841479301452637,1.978864312171936,0.747757077217102
1772883288951444200,2.8784443359375,8.994620323181152,2.0506489276885986,0.9672985672950745
1772883288968048600,2.895048583984375,8.974281311035156,2.163709878921509,1.1455638408660889
1772883288984640500,2.911640625,8.889934539794922,2.344966173171997,1.1569297313690186
1772883289001259000,2.928259033203125,8.916254997253418,2.41375994682312,0.966102123260498
1772883289017863700,2.94486376953125,8.985647201538086,2.5010979175567627,0.8991031050682068
1772883289034474500,2.961474609375,9.240483283996582,2.751147747039795,1.062413215637207
1772883289051089000,2.9780888671875,9.582656860351562,2.9353952407836914,1.26699960231781
1772883289067681300,2.994681396484375,9.80219841003418,3.0693931579589844,1.5014961957931519
1772883289084257000,3.011257080078125,9.777671813964844,3.1489546298980713,1.688734531402588
1772883289100878300,3.02787841796875,9.868598937988281,3.1968109607696533,1.8077775239944458
1772883289117479400,3.0444794921875,10.2478609085083,3.1250264644622803,1.7958134412765503
1772883289134084400,3.06108447265625,10.7766752243042,2.9874391555786133,1.7389838695526123
1772883289150691800,3.07769189453125,11.10628604888916,2.746960401535034,1.716252088546753
1772883289167297800,3.0942978515625,10.941181182861328,2.6117658615112305,1.6588243246078491
1772883289183903000,3.110903076171875,10.641480445861816,2.916252613067627,1.4380863904953003
1772883289200509700,3.127509765625,10.101301193237305,3.163909673690796,1.4620146751403809
1772883289217120000,3.1441201171875,9.980463027954102,3.1920254230499268,1.357926845550537
1772883289233718300,3.16071826171875,10.183853149414062,3.4791641235351562,1.090528964996338
1772883289250321200,3.177321044921875,9.746564865112305,3.6125640869140625,1.165902853012085
1772883289266945800,3.19394580078125,9.339186668395996,3.5048868656158447,1.5409778356552124
1772883289283532300,3.2105322265625,9.503693580627441,3.053241729736328,1.9142581224441528
1772883289300152600,3.227152587890625,10.258628845214844,2.376671075820923,1.9764715433120728
1772883289316757000,3.243757080078125,10.741978645324707,1.794616937637329,1.811964988708496
1772883289333362700,3.26036279296875,10.674980163574219,1.3866406679153442,1.3453645706176758
1772883289349967000,3.276967041015625,10.15155029296875,1.1198409795761108,1.0307083129882812
1772883289366552600,3.293552490234375,9.527621269226074,1.1162517070770264,0.6801598072052002
1772883289383165200,3.310165283203125,9.169894218444824,1.2287144660949707,0.46779683232307434
1772883289399765800,3.326765869140625,9.259027481079102,1.3256237506866455,0.46779683232307434
1772883289416375600,3.34337548828125,9.373882293701172,1.3639088869094849,0.6448656916618347
1772883289432993300,3.3599931640625,9.113663673400879,1.568495273590088,0.9726824164390564
1772883289449597400,3.376597412109375,8.654241561889648,1.933998942375183,1.303490161895752
1772883289466203000,3.393202880859375,8.234899520874023,2.1954147815704346,1.561316728591919
1772883289482788600,3.40978857421875,8.160721778869629,2.3336002826690674,1.5864413976669312
1772883289499413200,3.426413330078125,8.537590980529785,2.366501569747925,1.536790370941162
1772883289516019200,3.443019287109375,8.879166603088379,2.499901533126831,1.4590235948562622
1772883289532622000,3.4596220703125,8.770891189575195,2.6195425987243652,1.317248821258545
1772883289549230000,3.47622998046875,8.49033260345459,2.723630428314209,1.113858938217163
1772883289565833200,3.492833251953125,8.453842163085938,2.754138946533203,0.8225327730178833
1772883289582422000,3.509422119140625,8.445467948913574,2.857628345489502,0.49351966381073
1772883289599043800,3.5260439453125,8.306683540344238,3.0484559535980225,0.33798620104789734
1772883289615631400,3.54263134765625,8.309076309204102,3.1543383598327637,0.3002992272377014
1772883289632240400,3.559240478515625,8.534002304077148,3.2033913135528564,0.42831525206565857
1772883289648841500,3.575841552734375,8.882756233215332,3.315255880355835,0.6664010882377625
1772883289665453300,3.592453369140625,9.203393936157227,3.3607194423675537,0.7752745151519775
1772883289682042600,3.609042724609375,9.30748176574707,3.404986619949341,0.7938188910484314
1772883289698660900,3.625660888671875,9.038289070129395,3.5066816806793213,0.877567708492279
1772883289715262200,3.64226220703125,8.658429145812988,3.6125640869140625,0.8566305041313171
1772883289731874000,3.6588740234375,8.51306438446045,3.6879379749298096,0.8195417523384094
1772883289756781000,3.683781005859375,8.769096374511719,3.744767427444458,0.6514459848403931
1772883289773401000,3.700401123046875,9.151350021362305,3.768695592880249,0.615553617477417
1772883289790002400,3.71700244140625,9.45763111114502,3.776472330093384,0.6478567123413086
1772883289806606300,3.7336064453125,9.528818130493164,3.796213150024414,0.6281159520149231
1772883289823212500,3.750212646484375,9.173483848571777,3.841078519821167,0.5491527915000916
1772883289839817700,3.766817626953125,8.913264274597168,3.947559118270874,0.6185446381568909
1772883289856422100,3.783422119140625,8.894720077514648,3.9702908992767334,0.7286145091056824
1772883289873027300,3.80002734375,9.21117115020752,3.954139471054077,0.8321040868759155
1772883289889632500,3.816632568359375,9.746564865112305,4.223331928253174,0.7878368496894836
1772883289906237200,3.8332373046875,9.708279609680176,4.256233215332031,0.8410771489143372
1772883289922842600,3.849842529296875,9.731011390686035,4.234099864959717,0.6352944374084473
1772883289939447300,3.866447265625,9.6795654296875,4.359723091125488,0.38285163044929504
1772883289956052700,3.883052734375,9.369096755981445,4.360321044921875,0.50907301902771
1772883289972658200,3.899658203125,9.047262191772461,4.320241451263428,0.893121063709259
1772883289989262800,3.916262939453125,9.220742225646973,4.127020835876465,1.3070793151855469
1772883290005867300,3.9328671875,10.069596290588379,3.617349624633789,1.5565310716629028
1772883290022473500,3.949473388671875,10.828120231628418,2.9377880096435547,1.4608181715011597
1772883290039092700,3.9660927734375,11.01416301727295,2.338984251022339,1.1353943347930908
1772883290055682800,3.982682861328125,10.870593070983887,1.9764715433120728,0.7986045479774475
1772883290072288500,3.99928857421875,10.16889762878418,1.82273268699646,0.5527420043945312
1772883290088893200,4.01589306640625,9.245866775512695,1.95852530002594,0.3194418251514435
1772883290105481200,4.032481201171875,8.47477912902832,2.181057929992676,0.12502498924732208
1772883290122090000,4.049090087890625,8.271389961242676,2.266003131866455,0.031106693670153618
1772883290138694400,4.0656943359375,8.443673133850098,2.258824586868286,-0.013160524889826775
1772883290155300000,4.082300048828125,8.8438720703125,2.170290231704712,0.15613168478012085
1772883290171905000,4.098905029296875,9.30449104309082,2.1828525066375732,0.46480581164360046
1772883290188510500,4.115510498046875,9.559326171875,2.2169501781463623,0.6831508874893188
1772883290205115000,4.132114990234375,9.44327449798584,2.2917258739471436,0.7322037220001221
1772883290221720600,4.148720458984375,9.08674430847168,2.389233350753784,0.6969096064567566
1772883290238343000,4.165343017578125,8.769096374511719,2.5046870708465576,0.7136593461036682
1772883290254941200,4.181941162109375,8.86780071258545,2.6015963554382324,0.6999006271362305
1772883290271549000,4.198548828125,9.226125717163086,2.6249263286590576,0.7022934556007385
1772883290288154600,4.215154541015625,9.402596473693848,2.62313175201416,0.5724828243255615
1772883290304759000,4.231759033203125,9.084351539611816,2.6452653408050537,0.349352091550827
1772883290321364200,4.2483642578125,8.703892707824707,2.723630428314209,0.18005990982055664
1772883290337969200,4.26496923828125,8.428717613220215,2.83669114112854,0.07238288223743439
1772883290354574600,4.28157470703125,8.359326362609863,2.950948476791382,0.07357929646968842
1772883290371180300,4.29818017578125,8.516056060791016,3.0382864475250244,0.12143574655056
1772883290387784400,4.314784423828125,8.817551612854004,3.0831520557403564,0.2679961323738098
1772883290404389400,4.331389404296875,8.974879264831543,3.1040892601013184,0.25304099917411804
1772883290420995300,4.347995361328125,8.723034858703613,3.2273194789886475,0.12143574655056
1772883290437600500,4.3646005859375,8.3359956741333,3.4241292476654053,0.08195417374372482
1772883290454204700,4.38120458984375,8.179265975952148,3.6191442012786865,0.03170489892363548
1772883290470809900,4.397809814453125,8.450851440429688,3.693321704864502,0.12681959569454193
1772883290487415300,4.414415283203125,8.746963500976562,3.7298123836517334,0.10588239878416061
1772883290504020000,4.43102001953125,9.003593444824219,3.809373617172241,0.07657032459974289
1772883290520625400,4.44762548828125,9.083752632141113,3.900300979614258,0.1866401731967926
1772883290537230300,4.464230224609375,8.982656478881836,3.9565322399139404,0.21176479756832123
1772883290553835500,4.48083544921875,8.867202758789062,4.0217366218566895,0.31345975399017334
1772883290570440700,4.497440673828125,8.74756145477295,4.071387767791748,0.49591249227523804
1772883290587028500,4.514028564453125,9.070592880249023,4.006781578063965,0.6514459848403931
1772883290603637000,4.530636962890625,9.682557106018066,3.8159539699554443,0.7471588850021362
1772883290620242400,4.547242431640625,10.065408706665039,3.538386583328247,0.6999006271362305
1772883290636847000,4.56384716796875,10.070194244384766,3.482753276824951,0.5030909776687622
1772883290653452300,4.580452392578125,9.6795654296875,3.3589248657226562,0.48095735907554626
1772883290670057200,4.59705712890625,9.281160354614258,3.4031920433044434,0.4259224236011505
1772883290686663000,4.613662841796875,9.092127799987793,3.497708559036255,0.3080759048461914
1772883290703267600,4.630267578125,8.887541770935059,3.451646566390991,0.3517449200153351
1772883290719875800,4.646875732421875,8.891729354858398,3.273979663848877,0.45104706287384033
1772883290736491300,4.6634912109375,9.019146919250488,2.8773691654205322,0.5527420043945312
1772883290753097200,4.68009716796875,9.387042999267578,2.4640090465545654,0.7052844762802124
1772883290769701400,4.696701416015625,9.963713645935059,2.0919251441955566,0.7088736891746521
1772883290786306800,4.713306884765625,10.402796745300293,1.6612170934677124,0.755533754825592
1772883290802911200,4.7299111328125,10.61815071105957,1.4380863904953003,0.8153542876243591
1772883290819516700,4.7465166015625,10.551749229431152,1.441077470779419,0.9589236974716187
1772883290836122400,4.763122314453125,10.211370468139648,1.5361921787261963,1.1383854150772095
1772883290852726500,4.7797265625,9.908679008483887,1.7312071323394775,1.4859428405761719
1772883290869332200,4.796332275390625,9.714859962463379,2.007578134536743,1.929213285446167
1772883290885937400,4.8129375,9.597611427307129,2.2755744457244873,2.347957134246826
1772883290902541800,4.829541748046875,9.672985076904297,2.417947292327881,2.630908489227295
1772883290919146200,4.846146240234375,9.57906723022461,2.4011974334716797,2.7840490341186523
1772883290935761400,4.862761474609375,9.243474006652832,2.4119651317596436,2.7912275791168213
1772883290952358000,4.87935791015625,9.013164520263672,2.4388844966888428,2.7110681533813477
1772883290968963000,4.895963134765625,9.023334503173828,2.3018953800201416,2.4472594261169434
1772883290985567500,4.9125673828125,9.342177391052246,1.9932212829589844,1.9932212829589844
1772883291002172400,4.92917236328125,9.659825325012207,1.714457392692566,1.439282774925232
1772883291018778000,4.945778076171875,9.726823806762695,1.5702898502349854,1.0121639966964722
1772883291035383000,4.962383056640625,9.44626522064209,1.6271194219589233,0.7322037220001221
1772883291051988000,4.978988037109375,8.909076690673828,1.8945173025131226,0.6083751320838928
1772883291068593000,4.995593017578125,8.405387878417969,2.1774685382843018,0.5222335457801819
1772883291085181400,5.012181396484375,8.21994400024414,2.3670997619628906,0.47676992416381836
1772883291101789200,5.0287890625,8.300103187561035,2.4394826889038086,0.4815555512905121
1772883291118395100,5.04539501953125,8.400602340698242,2.4502503871917725,0.4905286431312561
1772883291134999300,5.061999267578125,8.61894702911377,2.4915266036987305,0.42771705985069275
1772883291151605000,5.07860498046875,8.772088050842285,2.493321180343628,0.3696911036968231
1772883291168218000,5.095218017578125,8.793622970581055,2.5800609588623047,0.3170489966869354
1772883291184814800,5.11181494140625,8.709874153137207,2.6709883213043213,0.21774685382843018
1772883291201419800,5.128419677734375,8.540582656860352,2.760719060897827,0.15254244208335876
1772883291218042400,5.14504248046875,8.389236450195312,2.898306369781494,0.12083754688501358
1772883291234643700,5.161643798828125,8.547162055969238,2.9186453819274902,0.1537388563156128
1772883291251248600,5.17824853515625,9.006584167480469,2.8863422870635986,0.059820566326379776
1772883291267854000,5.19485400390625,9.500701904296875,2.80558443069458,0.004187439568340778
1772883291284459000,5.211458984375,9.952347755432129,2.700300455093384,0.010169495828449726
1772883291301064400,5.228064453125,10.341779708862305,2.6327030658721924,0.05563312768936157
1772883291317669400,5.24466943359375,10.673783302307129,2.5776681900024414,0.1824527233839035
1772883291334273800,5.261273681640625,10.989038467407227,2.6327030658721924,0.2907279431819916
1772883291350879200,5.277879150390625,11.066804885864258,2.806182861328125,0.24885354936122894
1772883291367484700,5.294484619140625,11.092527389526367,2.9461629390716553,0.1537388563156128
1772883291384089000,5.311089111328125,11.229516983032227,2.991626501083374,0.04366901144385338
1772883291400694500,5.327694580078125,11.48794174194336,2.984447956085205,0.061016976833343506
1772883291417300200,5.34430029296875,11.877971649169922,2.888136863708496,0.08195417374372482
1772883291433904400,5.360904296875,12.382259368896484,2.5298118591308594,0.09092725813388824
1772883291450509600,5.377509521484375,12.868599891662598,1.9214365482330322,0.23688943684101105
1772883291467115000,5.394114990234375,12.760324478149414,1.3639088869094849,0.3768695592880249
1772883291483720000,5.410719970703125,12.223135948181152,0.9553344249725342,0.49172505736351013
1772883291500325400,5.427325439453125,11.917452812194824,0.7262216806411743,0.6209374666213989
1772883291516897300,5.443897216796875,11.906086921691895,0.5353940725326538,0.5431707501411438
1772883291533535000,5.460534912109375,11.693724632263184,0.3002992272377014,0.32243284583091736
1772883291550140400,5.477140380859375,10.665409088134766,0.23270200192928314,0.20817556977272034
1772883291566728400,5.493728515625,9.141778945922852,0.5659025311470032,0.17587246000766754
1772883291583336700,5.510336669921875,7.904689788818359,0.9780662655830383,0.20039889216423035
1772883291599941600,5.526941650390625,7.226324558258057,1.4297115802764893,0.2602194547653198
1772883291616534500,5.543534423828125,7.207779884338379,1.6821542978286743,0.3529413342475891
1772883291633152000,5.560152099609375,7.555337429046631,1.8005990982055664,0.4091726839542389
1772883291649753900,5.57675390625,7.868797302246094,1.919043779373169,0.355932354927063
1772883291666365400,5.593365478515625,8.315656661987305,2.0303099155426025,0.22971096634864807
1772883291682967300,5.60996728515625,8.803194046020508,2.0410776138305664,0.1746760457754135
1772883291699572200,5.626572265625,9.043074607849121,1.9908283948898315,0.129810631275177
1772883291716195000,5.643195068359375,9.148359298706055,1.954936146736145,0.004785645287483931
1772883291732795600,5.659795654296875,9.401998519897461,1.947757601737976,0.026919255033135414
1772883291749401000,5.676401123046875,9.7998046875,1.913659930229187,0.024526432156562805
1772883291766006800,5.6930068359375,9.873384475708008,1.8191434144973755,-0.010169495828449726
1772883291782611200,5.709611083984375,9.412766456604004,1.815554141998291,-0.1698904037475586
1772883291799216400,5.72621630859375,8.772088050842285,1.9776679277420044,-0.3613162338733673
1772883291815821800,5.74282177734375,8.415556907653809,2.117648124694824,-0.372682124376297
1772883291832425500,5.759425537109375,8.554939270019531,2.1361923217773438,-0.14356936514377594
1772883291849057300,5.776057373046875,8.981459617614746,1.9244276285171509,0.04366901144385338
1772883291865637000,5.79263720703125,9.068798065185547,1.867598056793213,0.0568295381963253
1772883291882241800,5.80924169921875,8.50169849395752,1.9908283948898315,0.008374879136681557
1772883291898847000,5.825846923828125,7.844270706176758,2.3192434310913086,-0.03768695518374443
1772883291915452200,5.8424521484375,7.3884382247924805,2.672184705734253,0.07238288223743439
1772883291932039400,5.859039306640625,7.262216567993164,3.067598581314087,0.1621137410402298
1772883291948653000,5.875653076171875,7.458428382873535,3.346362352371216,0.27337998151779175
1772883291965268000,5.89226806640625,7.846663475036621,3.593421459197998,0.3732803463935852
1772883291981868300,5.908868408203125,8.452646255493164,3.7286159992218018,0.4953143000602722
1772883291998481200,5.925481201171875,9.020941734313965,3.8386857509613037,0.6269195079803467
1772883292015069700,5.942069580078125,9.357132911682129,3.8362929821014404,0.7776673436164856
1772883292031687400,5.9586875,9.558728218078613,3.837489366531372,0.8913264274597168
1772883292048276000,5.97527587890625,9.78963565826416,3.7914273738861084,0.9852447509765625
1772883292064880400,5.99188037109375,10.156335830688477,3.6472599506378174,0.9774680733680725
1772883292081489400,6.008489501953125,10.710273742675781,3.6640095710754395,0.859621524810791
1772883292098094300,6.02509423828125,11.108080863952637,3.6293137073516846,0.8859425783157349
1772883292114688300,6.041688232421875,10.926824569702148,3.5048868656158447,0.6610172390937805
1772883292131303200,6.05830322265625,10.800004959106445,3.460021495819092,0.1256231814622879
1772883292147910700,6.07491064453125,10.948360443115234,3.3122646808624268,-0.2967100143432617
1772883292164514600,6.0915146484375,10.792228698730469,3.187239646911621,-0.4211367964744568
1772883292181119700,6.10811962890625,10.219745635986328,3.1411778926849365,-0.29371899366378784
1772883292197724700,6.124724609375,9.7005033493042,2.8935208320617676,0.06580262631177902
1772883292214347000,6.141346923828125,9.642477035522461,2.5124638080596924,0.39840495586395264
1772883292230948400,6.1579482421875,9.82373332977295,2.111067771911621,0.5521438121795654
1772883292247542000,6.1745419921875,10.03729248046875,1.9310078620910645,0.5730810165405273
1772883292264158500,6.191158447265625,10.117452621459961,1.7312071323394775,0.5473581552505493
1772883292280760300,6.20776025390625,10.323235511779785,1.6450655460357666,0.28235307335853577
1772883292297369000,6.224369140625,10.424331665039062,1.6223337650299072,0.24825534224510193
1772883292313974000,6.24097412109375,10.16291618347168,1.8239290714263916,0.4091726839542389
1772883292330563300,6.257563232421875,9.498908042907715,2.0925233364105225,0.6394818425178528
1772883292347172400,6.27417236328125,8.72901725769043,2.3324038982391357,0.7034898400306702
1772883292363789800,6.290789794921875,8.14815902709961,2.492722988128662,0.8321040868759155
1772883292380394000,6.30739404296875,7.840681552886963,2.593221426010132,0.9828519225120544
1772883292396999400,6.32399951171875,8.226524353027344,2.4675984382629395,1.0564311742782593
1772883292413604900,6.34060498046875,9.224929809570312,2.2498514652252197,0.8865407705307007
1772883292430192600,6.357192626953125,9.781859397888184,2.090130567550659,0.6957131624221802
1772883292446801700,6.3738017578125,9.830313682556152,2.0099709033966064,0.584446907043457
1772883292463419400,6.39041943359375,9.065208435058594,2.1708884239196777,0.42771705985069275
1772883292480024800,6.40702490234375,8.114660263061523,2.520838737487793,0.23449662327766418
1772883292496630000,6.423630126953125,7.489534854888916,2.8420751094818115,-0.061016976833343506
1772883292513235000,6.44023486328125,7.010970115661621,3.0346972942352295,-0.24825534224510193
1772883292529839400,6.45683935546875,6.81595516204834,3.2757742404937744,-0.14476576447486877
1772883292546436400,6.473436279296875,7.050451755523682,3.3056845664978027,0.007178467698395252
1772883292563036400,6.490036376953125,7.813762187957764,3.212364435195923,0.12203395366668701
1772883292579649300,6.506649169921875,8.534600257873535,3.0765717029571533,0.1453639715909958
1772883292596247300,6.523247314453125,8.912666320800781,3.0520453453063965,0.09511470049619675
1772883292612852200,6.539852294921875,8.992825508117676,3.077768087387085,-0.019740786403417587
1772883292629456600,6.55645654296875,8.867202758789062,3.0969107151031494,-0.1381855010986328
1772883292646061800,6.573061767578125,8.883952140808105,3.212364435195923,-0.1663011759519577
1772883292662666500,6.58966650390625,8.93958568572998,3.373879909515381,0.020937198773026466
1772883292679272200,6.606272216796875,8.994620323181152,3.503690481185913,0.031106693670153618
1772883292695880200,6.622880126953125,9.113064765930176,3.5676984786987305,-0.01196411345154047
1772883292712492500,6.639492431640625,9.317651748657227,3.5988051891326904,-0.046061836183071136
1772883292729103600,6.656103515625,9.691530227661133,3.6017963886260986,0.04247260093688965
1772883292745676800,6.6726767578125,9.872786521911621,3.6089746952056885,0.012562318705022335
1772883292762311000,6.689310791015625,9.844072341918945,3.6364922523498535,0.0849452018737793
1772883292778915800,6.705915771484375,9.879366874694824,3.814159393310547,0.10049854964017868
1772883292795521000,6.72252099609375,9.717252731323242,4.013959884643555,0.007178467698395252
1772883292812126500,6.73912646484375,9.544371604919434,3.90987229347229,-0.34217363595962524
1772883292828731100,6.755731201171875,9.839286804199219,3.689134359359741,-0.5078766345977783
1772883292845336300,6.77233642578125,10.360921859741211,3.4271202087402344,-0.527019202709198
1772883292861941200,6.788941162109375,11.059626579284668,3.1902308464050293,-0.45643091201782227
1772883292878546700,6.805546630859375,11.60399341583252,3.0143582820892334,-0.4462614357471466
1772883292895151900,6.82215185546875,11.816356658935547,2.68534517288208,-0.37806597352027893
1772883292911756800,6.8387568359375,11.9192476272583,2.3742783069610596,-0.2183450609445572
1772883292928361200,6.855361328125,11.879167556762695,2.2061824798583984,-0.1860419660806656
1772883292944950500,6.871950439453125,11.685349464416504,1.9100706577301025,0.07597211748361588
1772883292961556500,6.888556396484375,11.665608406066895,1.7180466651916504,0.13698910176753998
1772883292978176800,6.9051767578125,11.709277153015137,1.435693621635437,0.17288143932819366
1772883292994782000,6.921781982421875,11.502298355102539,1.2424731254577637,0.15314064919948578
1772883293011387400,6.938387451171875,10.503294944763184,1.3722838163375854,-0.064606212079525
1772883293027992000,6.954991943359375,9.166305541992188,1.6139588356018066,-0.39960137009620667
1772883293044580000,6.971580078125,8.319246292114258,1.80717933177948,-0.5946164131164551
1772883293061188400,6.988188232421875,8.078767776489258,1.9094724655151367,-0.5252245664596558
1772883293077794000,7.0047939453125,8.278568267822266,2.0207388401031494,-0.38225340843200684
1772883293094399200,7.021399169921875,8.621339797973633,2.1337995529174805,-0.2925225794315338
1772883293110992400,7.037992431640625,8.746963500976562,2.0679969787597656,-0.3320041298866272
1772883293127608600,7.054608642578125,8.71226692199707,2.111067771911621,-0.3409772217273712
1772883293144214300,7.07121435546875,8.960522651672363,2.1332013607025146,-0.3900300860404968
1772883293160819200,7.087819091796875,9.023932456970215,2.080559253692627,-0.30927231907844543
1772883293177424400,7.10442431640625,8.909076690673828,2.1409780979156494,-0.20817556977272034
1772883293194046200,7.121046142578125,8.937790870666504,2.1684954166412354,-0.05024927482008934
1772883293210648300,7.1376484375,9.103493690490723,2.2755744457244873,-0.031106693670153618
1772883293227252700,7.154252685546875,8.881559371948242,2.345564365386963,-0.16331014037132263
1772883293243868200,7.1708681640625,8.466404914855957,2.4670002460479736,-0.3128615617752075
1772883293260462800,7.187462890625,8.176873207092285,2.606980323791504,-0.25304099917411804
1772883293277069000,7.204069091796875,8.319844245910645,2.6985056400299072,-0.12861421704292297
1772883293293673700,7.220673828125,8.535198211669922,2.6907291412353516,-0.1010967567563057
1772883293310277400,7.23727734375,8.438887596130371,2.7517459392547607,-0.05742774158716202
1772883293326884400,7.25388427734375,8.340781211853027,2.8893332481384277,-0.01734796352684498
1772883293343491600,7.27049169921875,8.334200859069824,2.9898319244384766,-0.02153540402650833
1772883293360093700,7.28709375,8.403593063354492,3.067598581314087,-0.13579268753528595
1772883293376699000,7.303698974609375,8.398209571838379,3.1339993476867676,-0.07357929646968842
1772883293393303600,7.320303466796875,8.395816802978516,3.31465744972229,0.09032905846834183
1772883293409909000,7.336908935546875,8.422137260437012,3.4576287269592285,0.19202402234077454
1772883293426514200,7.35351416015625,8.516056060791016,3.5264222621917725,0.08195417374372482
1772883293443102500,7.3701025390625,8.80798053741455,3.468994617462158,-0.10169496387243271
1772883293459724500,7.386724609375,9.154341697692871,3.372683525085449,-0.11425728350877762
1772883293476330000,7.403330078125,9.164510726928711,3.390031576156616,0.08195417374372482
1772883293492934400,7.419934326171875,9.422337532043457,3.5856447219848633,0.5126622319221497
1772883293509539300,7.436539306640625,10.0073823928833,3.5336008071899414,0.6041877269744873
1772883293526127600,7.453127685546875,10.721041679382324,3.456432342529297,0.4899304509162903
1772883293542724000,7.46972412109375,11.01296615600586,3.623929977416992,0.2548356056213379
1772883293559341000,7.486341064453125,10.470394134521484,3.737588882446289,0.2877369225025177
1772883293575946200,7.5029462890625,10.030712127685547,3.9152560234069824,0.17168502509593964
1772883293592551000,7.519551025390625,9.849455833435059,4.129413604736328,0.08853443711996078
1772883293609156600,7.536156494140625,9.591031074523926,3.985844373703003,0.3900300860404968
1772883293625761000,7.552760986328125,9.55214786529541,3.604189157485962,0.7226324677467346
1772883293642366500,7.569366455078125,9.909276962280273,3.0317063331604004,0.9840483069419861
1772883293658971400,7.585971435546875,10.229914665222168,2.316850423812866,1.1012966632843018
1772883293675576800,7.602576904296875,10.076175689697266,1.8837496042251587,1.2041879892349243
1772883293692199200,7.61919921875,9.686744689941406,1.6462619304656982,0.9942178130149841
1772883293708800000,7.635800048828125,9.235098838806152,1.6109678745269775,0.6424728631973267
1772883293725405400,7.652405517578125,9.022137641906738,1.654038667678833,0.3284149169921875
1772883293741984300,7.668984375,9.196813583374023,1.6863417625427246,0.11724831163883209
1772883293758611700,7.68561181640625,9.31466007232666,1.8352949619293213,0.2273181527853012
1772883293775225000,7.70222509765625,9.22433090209961,2.1475582122802734,0.5318048596382141
1772883293791809000,7.71880908203125,9.064610481262207,2.331207513809204,0.7441678643226624
1772883293808430800,7.735430908203125,8.85942554473877,2.5351955890655518,0.6801598072052002
1772883293825035800,7.752035888671875,8.761918067932129,2.620140790939331,0.6622136831283569
1772883293841666300,7.768666259765625,9.096315383911133,2.6709883213043213,0.7465606927871704
1772883293858250500,7.78525048828125,9.745368003845215,2.6087749004364014,1.0534402132034302
1772883293874847000,7.801846923828125,10.234102249145508,2.6273193359375,1.1850453615188599
1772883293891456000,7.8184560546875,10.334002494812012,2.6195425987243652,1.1078768968582153
1772883293908061000,7.83506103515625,9.954142570495605,2.6177480220794678,0.7657032608985901
1772883293924659200,7.8516591796875,9.328418731689453,2.6811578273773193,0.38225340843200684
1772883293941278200,7.8682783203125,8.806783676147461,2.816950559616089,0.07058826833963394
1772883293957876500,7.88487646484375,8.550751686096191,2.958127021789551,0.04905286431312561
1772883293974481700,7.901481689453125,8.50708293914795,3.0185458660125732,0.1501496136188507
1772883293991086300,7.91808642578125,8.546564102172852,2.9521448612213135,0.1543370634317398
1772883294007691800,7.93469189453125,8.703293800354004,2.8187451362609863,0.2907279431819916
1772883294024279600,7.951279541015625,8.84207820892334,2.843271493911743,0.4001995921134949
1772883294040888000,7.96788818359375,8.638090133666992,2.905484914779663,0.12921242415905
1772883294057493200,7.9844931640625,8.625527381896973,2.899502754211426,-0.3152543902397156
1772883294074098700,8.0010986328125,8.532805442810059,2.929413080215454,-0.5874379873275757
1772883294090703400,8.017703369140625,8.323433876037598,3.1274192333221436,-0.5132604837417603
1772883294107308500,8.03430859375,8.11406135559082,3.3918261528015137,-0.31405797600746155
1772883294123913200,8.050913330078124,8.064410209655762,3.5150563716888428,-0.2793620526790619
1772883294140518700,8.0675185546875,8.278568267822266,3.518645763397217,-0.39960137009620667
1772883294157123600,8.08412353515625,8.511270523071289,3.551547050476074,-0.592223584651947
1772883294173729000,8.10072900390625,8.73918628692627,3.631108283996582,-0.6741777658462524
1772883294190350600,8.1173505859375,8.933603286743164,3.67238450050354,-0.7896314859390259
1772883294206953000,8.133952880859376,9.052047729492188,3.70767879486084,-0.8763712644577026
1772883294223557400,8.150557373046874,9.302098274230957,3.596412420272827,-0.9553344249725342
1772883294240146400,8.167146484375,9.77826976776123,3.246462106704712,-0.8697910308837891
1772883294256767500,8.183767578125,10.122836112976074,3.4570305347442627,-0.9942178130149841
1772883294273373400,8.20037353515625,10.103095054626465,3.551547050476074,-0.8500502705574036
1772883294289977900,8.216977783203125,10.945368766784668,3.339184045791626,-0.6837490797042847
1772883294306587000,8.2335869140625,11.59980583190918,3.3613176345825195,-0.7782655358314514
1772883294323187500,8.2501875,11.653644561767578,3.3367912769317627,-0.6687939167022705
1772883294339777000,8.266777099609374,11.816954612731934,3.173480987548828,-0.3409772217273712
1772883294356398000,8.283398193359375,12.702299118041992,2.7966115474700928,0.05742774158716202
1772883294373003300,8.300003173828125,13.326826095581055,2.2791635990142822,0.41874396800994873
1772883294389608700,8.316608642578124,13.27418327331543,2.0297117233276367,0.43609192967414856
1772883294406213400,8.33321337890625,13.013365745544434,1.6588243246078491,0.3966103494167328
1772883294422818300,8.349818359375,12.614960670471191,1.4159528017044067,0.2727817893028259
1772883294439423700,8.366423828125,11.802597999572754,1.3316057920455933,0.16689938306808472
1772883294456028400,8.3830283203125,10.432706832885742,1.332203984260559,0.007178467698395252
1772883294472633900,8.3996337890625,8.958727836608887,1.5385849475860596,-0.21236300468444824
1772883294489238800,8.41623876953125,7.6869425773620605,1.9369899034500122,-0.3409772217273712
1772883294505826800,8.432826904296874,6.98704195022583,2.1708884239196777,-0.5509474277496338
1772883294522435000,8.44943505859375,7.207181930541992,2.1684954166412354,-0.5808576941490173
1772883294539028700,8.46602880859375,7.773682594299316,2.1020946502685547,-0.48394837975502014
1772883294555631000,8.482631103515626,7.839485168457031,2.1649062633514404,-0.5030909776687622
1772883294572251000,8.4992509765625,7.655237674713135,2.245664119720459,-0.6352944374084473
1772883294588852200,8.515852294921874,7.887939929962158,2.3294129371643066,-0.6693921089172363
1772883294605464000,8.532464111328125,7.963313579559326,2.3742783069610596,-0.7363911867141724
1772883294622065700,8.549065673828125,7.984848976135254,2.5076780319213867,-0.6687939167022705
1772883294638660400,8.565660400390625,8.194221496582031,2.623729944229126,-0.5066801905632019
1772883294655275800,8.58227587890625,8.490931510925293,2.664407968521118,-0.3930211067199707
1772883294671884500,8.598884521484376,8.812766075134277,2.5776681900024414,-0.4815555512905121
1772883294688499500,8.61549951171875,8.769096374511719,2.554338216781616,-0.6634100675582886
1772883294705088000,8.632087890625,8.440083503723145,2.7044878005981445,-0.7178468108177185
1772883294721709600,8.64870947265625,8.401798248291016,2.8450660705566406,-0.3768695592880249
1772883294738280700,8.66528076171875,8.895318031311035,2.9001009464263916,-0.03469592705368996
1772883294754920000,8.681919921875,9.180662155151367,2.7876384258270264,0.06340979784727097
1772883294771525000,8.698525146484375,9.321240425109863,2.679363250732422,0.004187439568340778
1772883294788129800,8.7151298828125,9.33141040802002,2.60339093208313,-0.07776673883199692
1772883294804737500,8.731737548828125,8.916853904724121,2.8037898540496826,0.02632104977965355
1772883294821340400,8.74834033203125,8.183453559875488,3.191427230834961,0.2392822653055191
1772883294837929000,8.764928955078124,7.993224143981934,3.404388427734375,0.31824541091918945
1772883294854550800,8.78155078125,8.217551231384277,3.4917263984680176,0.4420739710330963
1772883294871151600,8.798151611328125,8.673981666564941,3.668795347213745,0.5030909776687622
1772883294887760400,8.814760498046875,8.901300430297852,3.8045880794525146,0.5647061467170715
1772883294904365600,8.831365478515625,8.902496337890625,4.005585193634033,0.5808576941490173
1772883294920970500,8.847970458984374,9.026325225830078,4.119842529296875,0.8057830333709717
1772883294937563000,8.86456298828125,8.915657043457031,4.2454657554626465,1.103689432144165
1772883294954180600,8.8811806640625,9.062217712402344,4.116851329803467,1.207179069519043
1772883294970785800,8.897785888671875,10.006186485290527,3.7734813690185547,1.103689432144165
1772883294987390500,8.914390380859375,10.911869049072266,3.397209882736206,0.9810572862625122
1772883295003979300,8.930979248046874,11.13320541381836,3.534797191619873,0.794417142868042
1772883295020587500,8.94758740234375,10.823933601379395,3.7363924980163574,0.9218349456787109
1772883295037173200,8.96417333984375,10.732407569885254,3.8015968799591064,1.0139585733413696
1772883295053797000,8.980797119140625,10.091729164123535,4.086342811584473,0.41216370463371277
1772883295070403800,8.99740380859375,9.418747901916504,4.158127784729004,0.16749759018421173
1772883295087007700,9.0140078125,9.80937671661377,3.9948174953460693,0.13998012244701385
1772883295103613000,9.030613037109376,10.73001480102539,3.2039895057678223,0.363709032535553
1772883295120217600,9.047217529296875,10.813763618469238,2.6057839393615723,0.44446679949760437
1772883295136823300,9.0638232421875,10.608579635620117,2.292922258377075,0.41994038224220276
1772883295153425000,9.0804248046875,10.331011772155762,1.9986051321029663,0.30927231907844543
1772883295170053600,9.0970537109375,10.076175689697266,1.9932212829589844,0.07597211748361588
1772883295186651600,9.113651611328125,9.727422714233398,1.867598056793213,-0.243469700217247
1772883295203240700,9.13024072265625,9.381659507751465,1.8233308792114258,-0.576670229434967
1772883295219878700,9.146878662109375,9.072985649108887,2.183450698852539,-0.5527420043945312
1772883295236453600,9.16345361328125,8.812766075134277,2.4364917278289795,-0.1860419660806656
1772883295253072400,9.180072265625,8.828319549560547,2.5471596717834473,0.35533416271209717
1772883295269677600,9.196677490234375,8.791230201721191,2.6901309490203857,0.9349954724311829
1772883295286282200,9.2132822265625,8.642276763916016,2.675175666809082,0.7926225066184998
1772883295302871000,9.22987109375,8.564510345458984,2.586641311645508,0.39062830805778503
1772883295319487200,9.2464873046875,8.58903694152832,2.4604198932647705,0.08315058797597885
1772883295336114200,9.2631142578125,8.882756233215332,2.437688112258911,0.3158525824546814
1772883295352703000,9.279702880859375,9.021539688110352,2.5465614795684814,0.6508477330207825
1772883295369307600,9.2963076171875,8.583653450012207,2.7984061241149902,0.28175488114356995
1772883295385912000,9.312912109375,7.493124008178711,3.0687949657440186,-0.3128615617752075
1772883295402507800,9.3295078125,6.993622303009033,3.0753753185272217,-0.5682953596115112
1772883295419106600,9.3461064453125,6.634698867797852,3.311666488647461,-0.664606511592865
1772883295435713300,9.36271337890625,7.061817646026611,3.3373894691467285,-0.37028929591178894
1772883295452333300,9.379333251953126,7.774280548095703,3.280559778213501,-0.6185446381568909
