time,seconds_elapsed,z,y,x
1772883523974935000,0.15993505859375,8.567501068115234,2.586641311645508,0.39182472229003906
1772883523991553300,0.17655322265625,8.916853904724121,2.5669004917144775,0.36610186100006104
1772883524008156700,0.19315673828125,8.73918628692627,2.5465614795684814,0.22791635990142822
1772883524024760300,0.20976025390625,8.521439552307129,2.641077995300293,0.08673982322216034
1772883524041367800,0.226367919921875,8.464012145996094,2.7433712482452393,0.3888336718082428
1772883524057988400,0.24298828125,8.301300048828125,3.1028928756713867,0.6891329288482666
1772883524074595000,0.259594970703125,8.041678428649902,3.2279176712036133,0.8446664214134216
1772883524091197400,0.276197509765625,7.320242881774902,3.032304525375366,0.45523449778556824
1772883524107803400,0.292803466796875,6.9822564125061035,2.6943182945251465,-0.20099709928035736
1772883524124405500,0.309405517578125,7.724629878997803,2.51425838470459,-0.6418746709823608
1772883524141011700,0.32601171875,8.23848819732666,2.1278176307678223,-0.7094719409942627
1772883524157592800,0.3425927734375,8.666803359985352,1.8059829473495483,-0.5706881880760193
1772883524174207700,0.359207763671875,8.718847274780273,1.674975872039795,-0.28534409403800964
1772883524190819800,0.37581982421875,8.592626571655273,1.6803597211837769,0.11724831163883209
1772883524207419400,0.39241943359375,8.686544418334961,1.6115660667419434,0.4223332107067108
1772883524224027000,0.40902685546875,8.922237396240234,1.3782658576965332,0.6251249313354492
1772883524240634400,0.42563427734375,9.022137641906738,1.1204391717910767,0.617946445941925
1772883524257253400,0.44225341796875,8.74756145477295,0.8991031050682068,0.4217349886894226
1772883524273859600,0.458859619140625,8.14217758178711,0.9565308690071106,0.19561325013637543
1772883524290460000,0.4754599609375,7.708477973937988,1.303490161895752,-0.062213387340307236
1772883524307065900,0.49206591796875,7.1509504318237305,1.8963119983673096,-0.12622138857841492
1772883524323671300,0.50867138671875,6.62931489944458,2.486740827560425,0.1010967567563057
1772883524340277000,0.525277099609375,7.397411346435547,3.0179476737976074,0.5694918036460876
1772883524356882700,0.541882568359375,9.160921096801758,3.4229328632354736,1.3657035827636719
1772883524373485300,0.5584853515625,11.784651756286621,3.8422749042510986,2.0572292804718018
1772883524390096600,0.5750966796875,13.048660278320312,4.30588436126709,2.0967109203338623
1772883524406701600,0.59170166015625,13.396217346191406,4.79102897644043,1.7204394340515137
1772883524423312100,0.60831201171875,16.17009735107422,4.742574691772461,1.40279221534729
1772883524439910100,0.62491015625,18.830915451049805,4.19282341003418,1.2831511497497559
1772883524456487700,0.64148779296875,19.339391708374023,4.910670280456543,1.3525429964065552
1772883524473107700,0.658107666015625,18.36012840270996,5.653043270111084,2.3443679809570312
1772883524489714400,0.67471435546875,17.69851303100586,6.290730953216553,2.5010979175567627
1772883524506318300,0.691318359375,17.2546443939209,6.290730953216553,1.9154545068740845
1772883524522927000,0.707927001953125,15.51924991607666,6.089135646820068,0.8327022790908813
1772883524539531300,0.72453125,13.47757339477539,5.828317642211914,-0.39122650027275085
1772883524556123400,0.741123291015625,12.643674850463867,5.446662425994873,-1.0157532691955566
1772883524572754400,0.75775439453125,12.09212875366211,4.802394866943359,-0.8117650747299194
1772883524589358600,0.774358642578125,11.189436912536621,4.202992916107178,-0.08434699475765228
1772883524605954600,0.79095458984375,9.910472869873047,3.583251953125,0.841675341129303
1772883524622572800,0.80757275390625,8.677571296691895,2.8253252506256104,1.8185452222824097
1772883524639173400,0.82417333984375,7.794619560241699,2.0614166259765625,2.1571295261383057
1772883524655766500,0.8407666015625,6.842874526977539,1.319043517112732,1.5930216312408447
1772883524672386600,0.857386474609375,5.909075736999512,1.0767701864242554,0.7166503667831421
1772883524689013800,0.874013671875,4.841278553009033,1.231107234954834,0.32662028074264526
1772883524705596200,0.89059619140625,3.6047873497009277,1.3884353637695312,0.5210371017456055
1772883524722187300,0.907187255859375,3.1591241359710693,1.6522440910339355,0.46360939741134644
1772883524738807300,0.923807373046875,3.1507492065429688,1.4075778722763062,-0.11186445504426956
1772883524755387000,0.940386962890625,2.9551360607147217,1.1383854150772095,-0.8111668825149536
1772883524772015900,0.957015869140625,2.517249345779419,1.089930772781372,-1.277767300605774
1772883524788624000,0.973623779296875,2.138585329055786,1.2035897970199585,-1.0977073907852173
1772883524805228300,0.990228271484375,1.8251254558563232,1.46500563621521,-0.6975077986717224
1772883524821832700,1.006832763671875,2.0554347038269043,1.5882359743118286,-0.20039889216423035
1772883524838444300,1.0234443359375,2.1589243412017822,1.3088740110397339,0.15553347766399384
1772883524855033600,1.04003369140625,2.227717876434326,0.9882357716560364,0.24885354936122894
1772883524871653000,1.056653076171875,2.347957134246826,0.48574298620224,0.4019941985607147
1772883524888256500,1.073256591796875,2.678765058517456,0.32542386651039124,-0.0364905446767807
1772883524904861700,1.08986181640625,2.9246275424957275,0.41515472531318665,-0.1902294009923935
1772883524921448700,1.10644873046875,3.5778679847717285,1.2376874685287476,-0.3978067636489868
1772883524938076200,1.123076171875,4.1868414878845215,2.300100803375244,-0.7908278703689575
1772883524954665000,1.1396650390625,5.318048477172852,3.3020951747894287,-1.2484551668167114
1772883524971271200,1.156271240234375,9.233902931213379,5.1188459396362305,-2.328814744949341
1772883524987877000,1.172877197265625,14.750555038452148,3.4677982330322266,0.8895317912101746
1772883525004482600,1.189482666015625,17.114065170288086,2.480160713195801,3.0933215618133545
1772883525021087000,1.2060869140625,16.40519142150879,3.920639991760254,2.7637102603912354
1772883525037693000,1.22269287109375,17.681163787841797,4.773681163787842,1.327418327331543
1772883525054302700,1.239302734375,19.365711212158203,5.400002479553223,-0.50907301902771
1772883525070922500,1.255922607421875,20.076379776000977,5.851647853851318,-0.34695929288864136
1772883525087520800,1.272520751953125,19.523040771484375,6.0849480628967285,1.3986048698425293
1772883525104128500,1.28912841796875,21.48276138305664,5.660820007324219,2.0063817501068115
1772883525120726500,1.3057265625,22.49552345275879,5.755934715270996,0.5377869009971619
1772883525137337600,1.322337646484375,19.351354598999023,5.940182209014893,-0.42831525206565857
1772883525153966600,1.338966552734375,15.448062896728516,6.226722717285156,-0.8632107973098755
1772883525170549000,1.355549072265625,13.065409660339355,6.183053493499756,-0.9936196208000183
1772883525187153400,1.3721533203125,12.5683012008667,5.660222053527832,-0.9182456731796265
1772883525203760000,1.388760009765625,12.80040454864502,4.95912504196167,-0.32721850275993347
1772883525220354600,1.4053544921875,13.421341896057129,4.261617183685303,0.3577269911766052
1772883525236961800,1.4219619140625,12.44985580444336,3.800400495529175,0.5180460810661316
1772883525253559000,1.43855908203125,10.450653076171875,3.3607194423675537,0.12861421704292297
1772883525270181000,1.45518115234375,8.741579055786133,2.8085756301879883,-0.19561325013637543
1772883525286787600,1.47178759765625,7.6289167404174805,2.146361827850342,-0.2231307178735733
1772883525303392300,1.488392333984375,6.7106709480285645,1.6612170934677124,-0.07776673883199692
1772883525320002300,1.505002197265625,6.0472612380981445,1.4644074440002441,0.2877369225025177
1772883525336595700,1.521595703125,5.284548759460449,1.3782658576965332,0.47796630859375
1772883525353186000,1.53818603515625,4.417150497436523,1.3932210206985474,0.397208571434021
1772883525369813000,1.55481298828125,3.624528169631958,1.2664014101028442,0.2189432680606842
1772883525386405000,1.571405029296875,3.1076784133911133,1.1060823202133179,-0.18125630915164948
1772883525403027000,1.58802685546875,2.5902304649353027,0.7549355626106262,-0.6065805554389954
1772883525419632400,1.60463232421875,1.5248262882232666,0.5030909776687622,-1.046859860420227
1772883525436219100,1.62121923828125,0.5276173949241638,0.5928218364715576,-1.0839486122131348
1772883525461131800,1.6461318359375,0.46360939741134644,1.34476637840271,-0.6664010882377625
1772883525477747200,1.662747314453125,1.2167502641677856,1.4799607992172241,-0.34695929288864136
1772883525494344400,1.679344482421875,2.1003000736236572,1.40279221534729,0.09032905846834183
1772883525510946000,1.695946044921875,2.2402801513671875,1.1850453615188599,0.22791635990142822
1772883525527554300,1.71255419921875,1.5858432054519653,0.7292127013206482,0.20398813486099243
1772883525544160500,1.729160400390625,1.784447431564331,0.35832518339157104,1.31365966796875
1772883525560770000,1.74577001953125,2.0997018814086914,1.667797327041626,0.3128615617752075
1772883525577379000,1.762379150390625,2.3533411026000977,3.094517946243286,-0.633499801158905
1772883525593995300,1.778995361328125,3.3379876613616943,5.388636589050293,-2.5537400245666504
1772883525610595000,1.795594970703125,2.0297117233276367,3.1585259437561035,-1.3519448041915894
1772883525627199200,1.81219921875,4.869992256164551,4.362713813781738,-2.5429723262786865
1772883525643807500,1.828807373046875,8.733802795410156,2.9868409633636475,-0.9104689955711365
1772883525660409600,1.84540966796875,12.152547836303711,0.4097708761692047,0.722034215927124
1772883525677010000,1.862010009765625,15.258431434631348,0.0771685317158699,0.3326023519039154
1772883525693626400,1.87862646484375,18.230915069580078,1.0857433080673218,-0.7812566161155701
1772883525710227200,1.895227294921875,20.514266967773438,0.5862415432929993,-1.7174484729766846
1772883525726828800,1.911828857421875,22.591236114501953,-1.1682956218719482,-2.5435705184936523
1772883525743442200,1.928442138671875,23.936601638793945,-2.6763720512390137,-3.1507492065429688
1772883525760043500,1.94504345703125,24.558734893798828,-2.589034080505371,-3.8009986877441406
1772883525776648700,1.961648681640625,24.29851531982422,-0.50129634141922,-4.043272018432617
1772883525793240000,1.978239990234375,21.069400787353516,1.064207911491394,-3.0454649925231934
1772883525809860600,1.994860595703125,17.322240829467773,0.4695914387702942,-1.7306089401245117
1772883525826447400,2.011447265625,15.810575485229492,0.9284151792526245,-1.659422516822815
1772883525843058000,2.028057861328125,15.605989456176758,1.0701899528503418,-2.084746837615967
1772883525859665700,2.044665771484375,15.169299125671387,0.8105686902999878,-2.5914268493652344
1772883525876267500,2.061267578125,14.22293758392334,0.31106695532798767,-2.5591237545013428
1772883525892875000,2.077875,12.053844451904297,0.6610172390937805,-1.8215361833572388
1772883525909480700,2.094480712890625,9.239884376525879,1.2885349988937378,-0.9750752449035645
1772883525926093300,2.11109326171875,6.905686378479004,1.573280930519104,-0.5401797294616699
1772883525942694400,2.1276943359375,6.073582172393799,1.6462619304656982,-0.5772684812545776
1772883525959296500,2.144296630859375,5.507081508636475,1.2957134246826172,-0.6191428303718567
1772883525975900400,2.160900390625,4.914857864379883,0.8147560954093933,-0.6634100675582886
1772883525992507400,2.17750732421875,4.300500392913818,0.2793620526790619,-0.8195417523384094
1772883526009112000,2.194112060546875,3.6909289360046387,0.04426721855998039,-0.9595218896865845
1772883526025715700,2.2107158203125,3.315255880355835,0.24167509377002716,-0.9433703422546387
1772883526042339800,2.22733984375,2.8935208320617676,0.45164528489112854,-0.5832505226135254
1772883526058946000,2.243946044921875,2.4293131828308105,0.6293123364448547,-0.3613162338733673
1772883526075543800,2.260543701171875,2.6811578273773193,0.8087740540504456,-0.3451646566390991
1772883526092155400,2.2771552734375,3.6442689895629883,0.6927221417427063,-0.28175488114356995
1772883526108757500,2.293757568359375,4.112663745880127,0.5736792087554932,-0.5754738450050354
1772883526125361700,2.310361572265625,4.111467361450195,0.6729813814163208,-0.5102694034576416
1772883526141964000,2.326964111328125,3.525225877761841,1.0929217338562012,-0.16510476171970367
1772883526158575600,2.34357568359375,3.421736478805542,1.8161523342132568,0.16091732680797577
1772883526175174000,2.360173828125,3.8763725757598877,1.8388842344284058,0.755533754825592
1772883526191788800,2.376788818359375,5.552545070648193,1.8239290714263916,0.7567301392555237
1772883526208389400,2.393389404296875,8.726624488830566,2.6865415573120117,-1.164108157157898
1772883526225014300,2.41001416015625,11.178668975830078,3.7196428775787354,-2.276770830154419
1772883526241602000,2.42660205078125,11.768500328063965,5.414957523345947,-2.0027925968170166
1772883526258221800,2.443221923828125,13.497912406921387,6.214758396148682,-0.5353940725326538
1772883526274809300,2.459809326171875,15.921841621398926,4.817948341369629,-1.2610175609588623
1772883526291417000,2.4764169921875,16.764713287353516,4.54337215423584,-2.547757863998413
1772883526308024800,2.49302490234375,17.170894622802734,4.288536548614502,-2.946761131286621
1772883526324630300,2.50963037109375,17.869001388549805,3.720839262008667,-3.421138286590576
1772883526341218300,2.52621826171875,18.768104553222656,3.180659532546997,-2.812762975692749
1772883526357845200,2.54284521484375,19.151554107666016,2.705684185028076,-1.5158531665802002
1772883526374435000,2.55943505859375,17.41316795349121,3.1447670459747314,-0.22492532432079315
1772883526391052000,2.576052001953125,15.942180633544922,3.5874392986297607,-0.7986045479774475
1772883526407659500,2.592659423828125,15.41635799407959,2.86061954498291,-1.7467604875564575
1772883526424244700,2.60924462890625,14.879767417907715,2.190629243850708,-1.9399809837341309
1772883526440853200,2.625853271484375,14.10568904876709,1.8352949619293213,-1.5146567821502686
1772883526457458200,2.642458251953125,12.225528717041016,2.0099709033966064,-1.2562319040298462
1772883526474048800,2.659048828125,10.256834030151367,2.493321180343628,-1.210768222808838
1772883526490665200,2.675665283203125,8.828917503356934,2.881556749343872,-0.7417750358581543
1772883526507274200,2.692274169921875,8.040482521057129,2.781656265258789,-0.01375873014330864
1772883526523880700,2.708880615234375,7.8388872146606445,2.38265323638916,0.5072783827781677
1772883526540486400,2.725486328125,7.823333740234375,1.7587246894836426,0.8135597109794617
1772883526557089800,2.74208984375,7.347760200500488,1.2681959867477417,0.6789634227752686
1772883526573694000,2.75869384765625,6.504888534545898,1.0007981061935425,0.4211367964744568
1772883526590320400,2.7753203125,5.683551788330078,1.0055837631225586,0.2512463629245758
1772883526606924000,2.791924072265625,5.014758110046387,1.1730812788009644,-0.18424734473228455
1772883526623526100,2.808526123046875,4.417150497436523,1.3866406679153442,-0.5018945336341858
1772883526640130800,2.825130859375,3.8434712886810303,1.322034478187561,-0.4875376224517822
1772883526656735700,2.84173583984375,3.414557933807373,1.3812568187713623,-0.5467599630355835
1772883526673339000,2.8583388671875,3.4061830043792725,1.456630825996399,-0.6382854580879211
1772883526689942000,2.87494189453125,3.775874137878418,1.317248821258545,-0.6538388133049011
1772883526706539000,2.8915390625,3.665804386138916,1.2490534782409668,-0.5318048596382141
1772883526723145200,2.908145263671875,3.31884503364563,1.280758261680603,-0.33738797903060913
1772883526739751700,2.924751708984375,3.149552822113037,1.2586246728897095,-0.26979073882102966
1772883526756355000,2.94135498046875,3.218346357345581,0.9469595551490784,-0.2105683982372284
1772883526772950000,2.957949951171875,3.730410575866699,0.6149554252624512,-0.14356936514377594
1772883526789585700,2.974585693359375,4.647459983825684,0.3116651475429535,-0.06281159073114395
1772883526806183700,2.99118359375,5.755336761474609,0.11485548317432404,-0.08195417374372482
1772883526822793200,3.007793212890625,6.737590312957764,1.0091729164123535,-0.4145565330982208
1772883526839394800,3.024394775390625,7.732406139373779,3.43908429145813,-2.344966173171997
1772883526856002300,3.041002197265625,8.37129020690918,4.671388149261475,-3.105883836746216
1772883526872585700,3.057585693359375,9.312865257263184,4.506283283233643,0.4103690981864929
1772883526889219600,3.074219482421875,12.224930763244629,3.0556344985961914,1.9076778888702393
1772883526905814800,3.090814697265625,16.092927932739258,2.8971099853515625,0.836291491985321
1772883526922430700,3.1074306640625,18.939191818237305,2.6398816108703613,0.010169495828449726
1772883526939013400,3.124013427734375,20.179271697998047,3.1172497272491455,-0.1818545162677765
1772883526955622000,3.140621826171875,18.600008010864258,3.899702787399292,1.0707881450653076
1772883526997132800,3.1821328125,17.04048728942871,5.5758748054504395,0.729810893535614
1772883527013741000,3.198740966796875,18.46002769470215,4.935794830322266,0.08554340898990631
1772883527030344400,3.215344482421875,18.833906173706055,3.2685956954956055,-0.9810572862625122
1772883527046966300,3.23196630859375,17.957534790039062,2.933002471923828,-2.0452651977539062
1772883527063568400,3.248568359375,15.929618835449219,3.4366915225982666,-1.9148563146591187
1772883527080174000,3.265174072265625,13.613964080810547,3.8847475051879883,-1.296311616897583
1772883527096779500,3.281779541015625,11.165508270263672,3.992424488067627,-0.6837490797042847
1772883527113368000,3.2983681640625,9.080163955688477,3.9457645416259766,-0.6771687865257263
1772883527129990700,3.31499072265625,7.355536937713623,3.5306098461151123,-0.7417750358581543
1772883527146596000,3.33159619140625,6.485745906829834,2.8013970851898193,-0.5078766345977783
1772883527163206000,3.348205810546875,6.537191390991211,1.7778671979904175,0.0771685317158699
1772883527179806000,3.364805908203125,6.729215621948242,0.9050851464271545,0.5288137793540955
1772883527196412000,3.381411865234375,6.293123722076416,0.4408775866031647,0.5754738450050354
1772883527213013200,3.39801318359375,5.254040241241455,0.5006981492042542,0.6251249313354492
1772883527229629200,3.414629150390625,4.360321044921875,0.7160521745681763,0.6652047038078308
1772883527246223600,3.4312236328125,4.574478626251221,1.170688509941101,0.3517449200153351
1772883527262823200,3.4478232421875,5.015954494476318,1.3106685876846313,0.17766708135604858
1772883527279438800,3.46443896484375,5.274379253387451,1.5343974828720093,0.09212367236614227
1772883527296044500,3.48104443359375,4.780261516571045,1.6893328428268433,0.37806597352027893
1772883527312638000,3.497637939453125,4.073182582855225,2.0273189544677734,0.8057830333709717
1772883527329255700,3.514255615234375,3.5784661769866943,2.249253273010254,1.144965648651123
1772883527345856500,3.5308564453125,3.7226338386535645,2.1607189178466797,1.0139585733413696
1772883527362470700,3.547470703125,3.975076675415039,1.5595221519470215,0.592223584651947
1772883527379071200,3.5640712890625,3.9080774784088135,0.9206385016441345,0.1860419660806656
1772883527395677000,3.580677001953125,3.906282901763916,0.4013960063457489,-0.1333998590707779
1772883527412276500,3.5972763671875,4.0145583152771,0.3152543902397156,0.028115665540099144
1772883527428871000,3.613870849609375,4.285545349121094,0.7561319470405579,0.3116651475429535
1772883527445479400,3.6304794921875,4.400999069213867,1.3256237506866455,-0.1052841991186142
1772883527462085000,3.647085205078125,5.632106304168701,4.301098823547363,-3.074777126312256
1772883527478694000,3.66369384765625,4.960321426391602,4.961517810821533,-2.1816561222076416
1772883527495296000,3.6802958984375,7.409973621368408,4.649254322052002,0.5862415432929993
1772883527511888400,3.696888427734375,12.994223594665527,4.59003210067749,1.1808580160140991
1772883527528523300,3.713523193359375,16.80299949645996,2.6368906497955322,-0.14656038582324982
1772883527545130000,3.7301298828125,18.838693618774414,2.338385820388794,-0.7010970115661621
1772883527561727700,3.746727783203125,18.26860237121582,3.2853455543518066,-0.24107688665390015
1772883527578336000,3.7633359375,15.608382225036621,5.050052165985107,0.4660021960735321
1772883527594941700,3.779941650390625,13.164113998413086,7.088139057159424,1.4039887189865112
1772883527611520000,3.79652001953125,12.19202995300293,7.715656757354736,2.365903377532959
1772883527628150800,3.81315087890625,13.935200691223145,7.066603660583496,2.159522533416748
1772883527644764000,3.829763916015625,16.88854217529297,5.628517150878906,1.0612168312072754
1772883527661357800,3.84635791015625,17.98804473876953,4.267001152038574,-0.064606212079525
1772883527677969000,3.862968994140625,17.04945945739746,4.624129772186279,0.09631111472845078
1772883527694574600,3.87957470703125,15.084354400634766,5.581258773803711,0.9320043921470642
1772883527711179800,3.8961796875,13.596616744995117,6.0197434425354,1.5224334001541138
1772883527727785200,3.91278515625,12.420543670654297,5.747560024261475,1.6707884073257446
1772883527744387300,3.92938720703125,11.657832145690918,5.253442287445068,1.4177473783493042
1772883527761000400,3.94600048828125,10.668997764587402,4.6402812004089355,1.3232308626174927
1772883527777567500,3.9625673828125,9.486345291137695,3.765106439590454,0.9026923179626465
1772883527794206700,3.979206787109375,8.332406997680664,3.1064820289611816,0.30149564146995544
1772883527810795500,3.99579541015625,7.655237674713135,2.7212376594543457,0.26919254660606384
1772883527827417900,4.01241796875,7.541578769683838,2.444866418838501,1.205384373664856
1772883527844023600,4.0290234375,7.088139057159424,2.0440688133239746,1.6301103830337524
1772883527860628200,4.045628173828125,6.238687038421631,1.6049858331680298,1.5026925802230835
1772883527877234000,4.06223388671875,6.09332275390625,1.32921302318573,1.0761719942092896
1772883527893839600,4.078839599609375,5.714658737182617,0.9320043921470642,0.6161518096923828
1772883527910423000,4.095423095703125,4.829314231872559,0.9373882412910461,0.5635097622871399
1772883527927036400,4.112036376953125,4.0181474685668945,1.160519003868103,0.8566305041313171
1772883527943642400,4.128642333984375,3.7639100551605225,1.1868400573730469,0.8297112584114075
1772883527960248000,4.145248046875,3.7597224712371826,1.0689935684204102,0.6089733839035034
1772883527976852700,4.161852783203125,3.6747772693634033,0.8841479420661926,0.23030917346477509
1772883527993458200,4.178458251953125,3.2727832794189453,0.7914260625839233,-0.035892341285943985
1772883528010053000,4.19505322265625,2.8420751094818115,0.7770691514015198,-0.07178468257188797
1772883528026686500,4.2116865234375,2.7864420413970947,0.9954141974449158,0.08793623000383377
1772883528043283700,4.22828369140625,3.318246841430664,1.2113664150238037,0.11006984114646912
1772883528059897600,4.244897705078125,4.066003799438477,1.3926228284835815,0.06939185410737991
1772883528076499000,4.2614990234375,4.286143779754639,1.6019947528839111,-0.08374879509210587
1772883528093104600,4.278104736328125,4.744967460632324,3.3708889484405518,-1.6372889280319214
1772883528109693200,4.294693115234375,4.439284324645996,6.023332595825195,-3.3708889484405518
1772883528126299000,4.311298828125,4.051048755645752,3.7980077266693115,-0.39601215720176697
1772883528142916400,4.327916259765625,9.267401695251465,4.463810443878174,-0.597607433795929
1772883528159530500,4.344530517578125,13.089338302612305,3.311068296432495,0.2907279431819916
1772883528176114400,4.361114501953125,15.432509422302246,2.496312141418457,0.6203392744064331
1772883528192736800,4.37773681640625,15.66102409362793,3.459423303604126,0.23449662327766418
1772883528209343700,4.39434375,14.736198425292969,4.887340068817139,0.5180460810661316
1772883528225936400,4.410936279296875,13.938192367553711,6.026922225952148,1.1048858165740967
1772883528242550500,4.427550537109375,14.517852783203125,6.172883987426758,1.5948163270950317
1772883528259160600,4.44416064453125,15.599409103393555,5.892923831939697,1.5439687967300415
1772883528275750100,4.460750244140625,15.970894813537598,5.063212871551514,1.0863415002822876
1772883528292369700,4.47736962890625,15.51386547088623,5.1188459396362305,0.12801600992679596
1772883528308942000,4.493942138671875,14.402399063110352,5.127819061279297,-0.0526420995593071
1772883528325580300,4.510580322265625,13.548760414123535,5.547161102294922,0.18963119387626648
1772883528342177300,4.52717724609375,13.414761543273926,5.963512420654297,0.5952146053314209
1772883528358800000,4.5437998046875,13.916058540344238,5.776273727416992,1.3513466119766235
1772883528375383600,4.560383544921875,14.20020580291748,5.034498691558838,1.693520188331604
1772883528391997400,4.57699755859375,13.819149017333984,4.329214572906494,1.4225330352783203
1772883528408581400,4.593581298828125,12.755538940429688,3.779463291168213,1.089930772781372
1772883528425199000,4.61019921875,11.621341705322266,3.4342987537384033,0.8261220455169678
1772883528441804300,4.62680419921875,10.377073287963867,2.9048867225646973,0.7286145091056824
1772883528458409700,4.64340966796875,9.160323143005371,2.6111676692962646,1.1012966632843018
1772883528475015400,4.660015380859375,7.636693477630615,2.3473589420318604,1.5481562614440918
1772883528491620900,4.676620849609375,6.563512325286865,2.173281192779541,1.5242279767990112
1772883528508216000,4.693216064453125,5.802595138549805,1.8131613731384277,1.2532408237457275
1772883528524844800,4.7098447265625,4.9160542488098145,1.3405789136886597,1.1114661693572998
1772883528541447700,4.72644775390625,4.2107696533203125,1.090528964996338,0.8602197170257568
1772883528558059500,4.7430595703125,4.025325775146484,1.0839486122131348,0.2679961323738098
1772883528574644200,4.759644287109375,4.2245283126831055,1.0414760112762451,-0.09690931439399719
1772883528591266800,4.776266845703125,4.1042890548706055,0.9278169870376587,0.16091732680797577
1772883528607861000,4.792861083984375,3.363112211227417,1.0079765319824219,0.4863412082195282
1772883528624478000,4.80947802734375,2.92283296585083,1.1676974296569824,0.24586252868175507
1772883528641082400,4.826082275390625,3.2584261894226074,1.195214867591858,-0.3439682424068451
1772883528657688600,4.8426884765625,3.8632121086120605,0.7639086246490479,-0.5754738450050354
1772883528674264800,4.859264892578125,3.7328033447265625,0.3128615617752075,-0.6113662123680115
1772883528690899200,4.875899169921875,3.229114055633545,0.3415754437446594,-0.7328019142150879
1772883528707490800,4.89249072265625,3.0652058124542236,0.6747759580612183,-0.6813562512397766
1772883528724110600,4.909110595703125,3.3003005981445312,0.9906286001205444,-0.4175475537776947
1772883528740711200,4.925711181640625,4.2000017166137695,1.3806586265563965,-0.706480860710144
1772883528757325000,4.942324951171875,6.472585201263428,3.8937206268310547,-3.0011978149414062
1772883528773909500,4.958909423828125,6.295516490936279,4.511068820953369,-2.7086751461029053
1772883528790531300,4.97553125,7.997411251068115,3.6568312644958496,0.4893322288990021
1772883528807136800,4.99213671875,11.902498245239258,4.390231132507324,1.9363917112350464
1772883528823743000,5.008742919921875,13.753944396972656,2.864208698272705,2.589034080505371
1772883528840340200,5.02534033203125,14.954543113708496,2.6494529247283936,1.155135154724121
1772883528856960500,5.04196044921875,15.445072174072266,2.9377880096435547,-0.6340979933738708
1772883528873543400,5.05854345703125,15.716657638549805,3.840480327606201,-1.8245272636413574
1772883528890147000,5.07514697265625,15.39661693572998,4.76829719543457,-0.47676992416381836
1772883528906737000,5.09173681640625,16.042081832885742,5.053043365478516,2.4293131828308105
1772883528923344600,5.1083447265625,17.71526336669922,4.412364959716797,3.9984066486358643
1772883528939966700,5.124966796875,17.9766788482666,4.66361141204834,2.3150558471679688
1772883528956572700,5.14157275390625,17.219947814941406,4.696512699127197,0.8225327730178833
1772883528973177000,5.158177001953125,15.65264892578125,4.208376884460449,0.46002015471458435
1772883528989782800,5.17478271484375,15.257235527038574,4.390829563140869,0.46360939741134644
1772883529006392600,5.191392578125,16.298112869262695,4.535595417022705,0.5252245664596558
1772883529023007500,5.208007568359375,16.664813995361328,4.381258487701416,0.5796613097190857
1772883529039605800,5.224605712890625,15.727424621582031,4.365106582641602,1.3405789136886597
1772883529056221400,5.241221435546875,14.212169647216797,4.134199142456055,2.41375994682312
1772883529072807200,5.25780712890625,13.209577560424805,3.6227335929870605,2.774477958679199
1772883529089425700,5.27442578125,12.125030517578125,2.6985056400299072,2.558525562286377
1772883529106059300,5.291059326171875,10.73719310760498,1.8065811395645142,2.1535403728485107
1772883529122640100,5.30764013671875,9.710074424743652,1.292722463607788,1.6151553392410278
1772883529139241000,5.324240966796875,8.879166603088379,1.085145115852356,1.2735798358917236
1772883529155854800,5.340854736328125,6.987640380859375,1.160519003868103,1.2610175609588623
1772883529172455700,5.35745556640625,4.771886348724365,1.6259230375289917,1.1048858165740967
1772883529189045000,5.374044921875,2.940180778503418,1.7653049230575562,0.9583254456520081
1772883529205654800,5.39065478515625,2.043470621109009,1.7910277843475342,0.7148557901382446
1772883529222272500,5.4072724609375,1.5296118259429932,1.7922241687774658,0.4977070987224579
1772883529238871600,5.42387158203125,1.1228320598602295,1.7736797332763672,0.42352959513664246
1772883529255488500,5.440488525390625,1.2544373273849487,1.7066807746887207,0.5988038778305054
1772883529272088300,5.45708837890625,1.7796618938446045,1.6241283416748047,0.8823533654212952
1772883529288694000,5.473694091796875,2.3772692680358887,1.4709876775741577,1.093519926071167
1772883529305299000,5.490298828125,2.444866418838501,1.119242787361145,0.9182456731796265
1772883529321909500,5.506909423828125,1.8939191102981567,0.6119644045829773,0.7549355626106262
1772883529338501000,5.523501220703125,1.2795618772506714,0.1746760457754135,0.7549355626106262
1772883529355119600,5.54011962890625,1.5583257675170898,0.2949153780937195,0.47198426723480225
1772883529371704000,5.5567041015625,2.8277182579040527,0.6562315821647644,-0.4695914387702942
1772883529388305200,5.57330517578125,4.357329845428467,2.462214469909668,-2.8420751094818115
1772883529404910300,5.589910400390625,4.019343852996826,4.953741073608398,-4.840082168579102
1772883529421523700,5.606523681640625,2.837887763977051,2.3330020904541016,-1.337587833404541
1772883529438126800,5.623126953125,5.721837043762207,5.347360610961914,-0.9678967595100403
1772883529454735600,5.639735595703125,9.080163955688477,4.8915276527404785,1.3004990816116333
1772883529471339500,5.656339599609375,13.098909378051758,2.820539712905884,1.817348837852478
1772883529487942700,5.672942626953125,15.549757957458496,3.2727832794189453,-0.49351966381073
1772883529504567000,5.689567138671875,15.497116088867188,3.0029923915863037,0.19322042167186737
1772883529521145600,5.7061455078125,15.251253128051758,2.4604198932647705,1.2957134246826172
1772883529537773800,5.72277392578125,15.156736373901367,2.321038007736206,1.8023936748504639
1772883529554388700,5.739388671875,15.838092803955078,2.9318058490753174,1.7359927892684937
1772883529570980400,5.75598046875,17.301902770996094,3.9391841888427734,1.6630117893218994
1772883529587574800,5.77257470703125,18.430715560913086,4.383052825927734,2.129014015197754
1772883529604176100,5.789176025390625,18.095123291015625,4.046263217926025,2.4675984382629395
1772883529620805400,5.805805419921875,17.344972610473633,4.206582069396973,2.3635106086730957
1772883529637391600,5.8223916015625,16.884355545043945,4.695914268493652,2.1876380443573
1772883529654015500,5.839015380859375,17.13799476623535,4.633102893829346,1.9800606966018677
1772883529670583300,5.855583251953125,17.059030532836914,3.9637107849121094,1.8753747940063477
1772883529687211300,5.872211181640625,15.87458324432373,3.4612178802490234,1.4859428405761719
1772883529703822300,5.888822265625,13.84367561340332,3.5162527561187744,1.3830515146255493
1772883529720407800,5.90540771484375,11.572288513183594,3.8051862716674805,1.7234305143356323
1772883529737023000,5.92202294921875,10.232307434082031,3.716651678085327,1.3956137895584106
1772883529753634600,5.938634521484375,9.833304405212402,2.86061954498291,0.8081758618354797
1772883529770236400,5.955236328125,9.893723487854004,2.059622049331665,0.47198426723480225
1772883529786842400,5.97184228515625,9.549755096435547,1.4781662225723267,0.3451646566390991
1772883529803447300,5.988447265625,8.556135177612305,1.1754741668701172,0.381655216217041
1772883529820056600,6.005056640625,7.202396392822266,1.174277663230896,0.4660021960735321
1772883529836664800,6.021664794921875,6.035895347595215,1.1042876243591309,0.45284169912338257
1772883529853284600,6.03828466796875,5.329414367675781,1.0103694200515747,0.4372883439064026
1772883529869865700,6.05486572265625,4.805386066436768,0.8428717851638794,0.3194418251514435
1772883529886461700,6.071461669921875,4.127020835876465,0.7740781307220459,0.29371899366378784
1772883529903066600,6.088066650390625,3.3894333839416504,0.8327022790908813,0.32721850275993347
1772883529919685400,6.104685302734375,2.981456995010376,0.9182456731796265,0.4163511395454407
1772883529936287700,6.121287841796875,2.761317253112793,0.8691928386688232,0.29730820655822754
1772883529952899600,6.137899658203125,2.7930221557617188,0.7028916478157043,0.2147558331489563
1772883529969501200,6.154501220703125,2.71645188331604,0.4899304509162903,0.37148571014404297
1772883529986113300,6.17111328125,2.606382131576538,0.4707878530025482,0.2667997181415558
1772883530002739700,6.18773974609375,2.3222343921661377,0.5066801905632019,0.1537388563156128
1772883530019331600,6.20433154296875,2.444268226623535,0.5856433510780334,-0.018544375896453857
1772883530035932700,6.2209326171875,2.8426733016967773,0.9092726111412048,-0.39122650027275085
1772883530052546300,6.23754638671875,3.455834150314331,1.9920248985290527,-1.4967105388641357
1772883530069131300,6.25413134765625,3.6981074810028076,3.8901314735412598,-2.1583259105682373
1772883530085759200,6.27075927734375,4.777270317077637,1.9076778888702393,0.5904290080070496
1772883530102352100,6.28735205078125,9.774680137634277,3.401397466659546,0.711864709854126
1772883530118988500,6.303988525390625,14.956337928771973,2.362314224243164,0.5892325639724731
1772883530135568000,6.32056787109375,17.55015754699707,0.582054078578949,0.5754738450050354
1772883530152178400,6.337178466796875,17.382659912109375,1.2059825658798218,-0.5000999569892883
1772883530168763400,6.353763427734375,17.389240264892578,1.7778671979904175,-0.7974081635475159
1772883530185368600,6.37036865234375,19.08455467224121,2.169093608856201,-0.17706887423992157
1772883530201986800,6.38698681640625,19.757535934448242,2.7349963188171387,1.1575279235839844
1772883530218600400,6.403600341796875,19.200607299804688,3.7716867923736572,2.445464849472046
1772883530235207700,6.420207763671875,17.9700984954834,5.496912002563477,2.211566209793091
1772883530251800300,6.43680029296875,15.533008575439453,6.059823513031006,2.138585329055786
1772883530268436700,6.453436767578125,12.589836120605469,5.7756757736206055,1.9615163803100586
1772883530285017900,6.470017822265625,11.401800155639648,6.1465630531311035,0.7034898400306702
1772883530301616400,6.486616455078125,12.337393760681152,5.610570907592773,0.22133609652519226
1772883530318235000,6.50323486328125,13.460225105285645,4.430909156799316,0.20578274130821228
1772883530334827300,6.5198271484375,13.758131980895996,3.2404799461364746,-0.12023933976888657
1772883530351446300,6.5364462890625,12.624532699584961,2.255833625793457,0.02273181453347206
1772883530368027400,6.55302734375,10.552946090698242,2.059023857116699,0.3002992272377014
1772883530384636400,6.569636474609375,9.182456970214844,1.7874385118484497,0.6460621356964111
1772883530401241900,6.586241943359375,9.852447509765625,1.3962119817733765,0.24227328598499298
1772883530417847600,6.60284765625,10.040882110595703,0.6394818425178528,0.5467599630355835
1772883530434450000,6.619449951171875,8.912666320800781,0.5282155871391296,0.39421752095222473
1772883530451060200,6.636060302734375,7.001997470855713,0.35413774847984314,0.4325026869773865
1772883530467654100,6.652654052734375,4.993820667266846,0.5521438121795654,0.44027936458587646
1772883530484272600,6.669272705078125,3.535395383834839,0.9068797826766968,0.18364913761615753
1772883530500886800,6.68588671875,2.9838497638702393,1.0863415002822876,-0.20458634197711945
1772883530517496600,6.70249658203125,3.421736478805542,1.1120643615722656,-0.4504488706588745
1772883530534092000,6.719092041015625,3.8985064029693604,0.96370929479599,-0.4259224236011505
1772883530550708200,6.735708251953125,3.789632797241211,0.9104689955711365,-0.43968117237091064
1772883530567308800,6.752308837890625,3.717249870300293,0.8632107973098755,-0.6215356588363647
1772883530583914800,6.768914794921875,3.7046875953674316,0.7674978375434875,-0.6604190468788147
1772883530600515800,6.785515869140625,3.5617165565490723,0.8165507316589355,-0.41515472531318665
1772883530617130000,6.8021298828125,3.315255880355835,1.088136076927185,0.004187439568340778
1772883530633723000,6.818722900390625,3.9391841888427734,1.454237937927246,0.5629115104675293
1772883530650344200,6.83534423828125,5.431707382202148,1.8263218402862549,0.8919246196746826
1772883530666934300,6.851934326171875,7.052246570587158,2.0105693340301514,0.39182472229003906
1772883530683547100,6.868547119140625,9.991230964660645,2.6632115840911865,-1.217348575592041
1772883530700152600,6.885152587890625,11.663813591003418,5.642873764038086,-4.648656368255615
1772883530716757500,6.901757568359375,9.631111145019531,4.925027370452881,-1.4715858697891235
1772883530733359600,6.918359619140625,9.715457916259766,4.381856441497803,1.8580267429351807
1772883530749972700,6.93497265625,13.840683937072754,1.9932212829589844,1.567897081375122
1772883530766590000,6.95158984375,18.40559196472168,-1.0265209674835205,-0.5988038778305054
1772883530783179500,6.968179443359375,19.54517364501953,-1.0516455173492432,-1.2987045049667358
1772883530799777300,6.98477734375,17.236698150634766,0.6418746709823608,0.4007977843284607
1772883530816397000,7.00139697265625,14.270793914794922,2.9282166957855225,1.319043517112732
1772883530832989400,7.017989501953125,14.91685676574707,4.555335998535156,1.6049858331680298
1772883530849590800,7.0345908203125,15.326028823852539,4.038486480712891,2.68953275680542
1772883530866193700,7.051193603515625,14.895320892333984,4.28734016418457,2.712862730026245
1772883530882798800,7.067798828125,13.680963516235352,4.29451847076416,1.41834557056427
1772883530899403000,7.084403076171875,13.187443733215332,3.964308977127075,-0.43190449476242065
1772883530916012000,7.101011962890625,13.953146934509277,4.07258415222168,-1.5690934658050537
1772883530932608000,7.11760791015625,13.652848243713379,3.964308977127075,-0.9559326171875
1772883530949223200,7.13422314453125,13.269996643066406,4.855635166168213,0.11485548317432404
1772883530965811000,7.15081103515625,12.53839111328125,5.508875846862793,0.6496513485908508
1772883530982447600,7.167447509765625,11.882159233093262,5.934200286865234,1.0247262716293335
1772883530999049500,7.184049560546875,10.491929054260254,5.695516109466553,1.4327025413513184
1772883531015654000,7.20065380859375,8.420342445373535,5.166104316711426,1.4069796800613403
1772883531032253200,7.217253173828125,6.766902446746826,4.432703971862793,1.1431710720062256
1772883531048873700,7.233873779296875,6.40020227432251,3.2626137733459473,0.9308080077171326
1772883531065454600,7.25045458984375,6.760920524597168,1.9022940397262573,0.9427721500396729
1772883531082077000,7.267076904296875,6.829713821411133,1.0887342691421509,1.0654042959213257
1772883531098677500,7.283677490234375,6.041877269744873,0.8297112584114075,1.2975081205368042
1772883531115297300,7.30029736328125,5.003392219543457,0.9493523836135864,1.6199408769607544
1772883531131883500,7.316883544921875,4.135993957519531,1.0354939699172974,1.6636099815368652
1772883531148501500,7.33350146484375,3.517449378967285,1.0067801475524902,1.4374881982803345
1772883531165089300,7.35008935546875,3.156731367111206,1.0007981061935425,1.1001001596450806
1772883531181708500,7.36670849609375,2.929413080215454,1.0809576511383057,0.9343972206115723
1772883531198315500,7.3833154296875,2.606980323791504,1.210170030593872,1.109073281288147
1772883531214918000,7.39991796875,1.963310956954956,1.4033905267715454,1.2388839721679688
1772883531231518200,7.416518310546875,1.7359927892684937,1.4829518795013428,1.1497513055801392
1772883531248137700,7.4331376953125,1.9046868085861206,1.3519448041915894,0.9613165259361267
1772883531264718800,7.44971875,2.400001049041748,1.1306086778640747,0.6269195079803467
1772883531281341400,7.466341552734375,3.005385160446167,1.1443674564361572,0.29371899366378784
1772883531297939500,7.482939453125,3.7022948265075684,1.2143574953079224,0.3044866919517517
1772883531314559500,7.4995595703125,3.9361932277679443,1.4063814878463745,-0.020937198773026466
1772883531331160600,7.51616064453125,4.147958278656006,4.064209461212158,-2.379662036895752
1772883531347741400,7.532741455078125,1.171286702156067,6.056832313537598,-1.8502501249313354
1772883531364354000,7.54935400390625,1.7982062101364136,4.788636207580566,1.9148563146591187
1772883531380959700,7.565959716796875,11.003395080566406,6.495915412902832,0.7854440212249756
1772883531397565000,7.58256494140625,16.269996643066406,2.9838497638702393,1.2460623979568481
1772883531414168000,7.59916796875,16.71446418762207,1.472184181213379,1.2035897970199585
1772883531430775000,7.615775146484375,14.077573776245117,3.5084762573242188,-0.24406790733337402
1772883531447384300,7.63238427734375,12.048460006713867,6.183651924133301,-0.6245267391204834
1772883531463973600,7.6489736328125,13.427922248840332,6.7070817947387695,0.4145565330982208
1772883531480609300,7.665609375,16.760526657104492,7.179664134979248,1.412961721420288
1772883531497211000,7.6822109375,19.84786605834961,6.871588230133057,2.8283164501190186
1772883531513819100,7.698819091796875,21.25065803527832,5.961119174957275,2.468794822692871
1772883531530422000,7.715422119140625,19.65943145751953,5.753541946411133,0.003589233849197626
1772883531547024600,7.732024658203125,15.470196723937988,6.436692714691162,-1.306481122970581
1772883531563617300,7.7486171875,12.905689239501953,7.41416072845459,-1.332802176475525
1772883531580238300,7.76523828125,13.59362506866455,7.378268718719482,-0.15074782073497772
1772883531596843500,7.781843505859375,15.248262405395508,6.591628074645996,1.0869396924972534
1772883531613449000,7.798448974609375,15.950555801391602,5.782256126403809,1.5074782371520996
1772883531630054000,7.815053955078125,14.009378433227539,5.123033046722412,0.6191428303718567
1772883531646659000,7.8316591796875,10.572088241577148,4.929812908172607,-0.20458634197711945
1772883531663255000,7.848255126953125,7.124031066894531,4.727021217346191,-0.4827519655227661
1772883531679870700,7.86487060546875,5.274379253387451,4.140779495239258,0.3314059376716614
1772883531696471300,7.88147119140625,6.037689685821533,3.111267566680908,1.4003994464874268
1772883531713085000,7.8980849609375,8.337790489196777,1.8646070957183838,1.2346965074539185
1772883531729686800,7.914686767578125,9.57069206237793,1.0767701864242554,0.8584251403808594
1772883531746291700,7.931291748046875,8.617751121520996,0.9397810697555542,1.164108157157898
1772883531762886700,7.94788671875,6.492326259613037,1.317248821258545,1.3465609550476074
1772883531779502600,7.964502685546875,4.328616142272949,1.5487544536590576,1.207179069519043
1772883531796102000,7.981101806640625,3.4402806758880615,1.5152549743652344,0.6143572330474854
1772883531812719600,7.9977197265625,3.7357943058013916,1.1772687435150146,0.1746760457754135
1772883531829301800,8.0143017578125,4.3178486824035645,1.176072359085083,-0.09152546525001526
1772883531845910300,8.03091015625,4.1593241691589355,1.1431710720062256,-0.33499518036842346
1772883531862495000,8.047494873046874,3.914059638977051,1.5445669889450073,-0.03409772366285324
1772883531879121700,8.06412158203125,3.686741590499878,1.6612170934677124,0.623330295085907
1772883531895726000,8.08072607421875,2.927020311355591,1.7030915021896362,0.981655478477478
1772883531912332000,8.09733203125,2.640479803085327,1.591825246810913,0.6909275650978088
1772883531928937500,8.1139375,3.372683525085449,1.3100703954696655,-0.12861421704292297
1772883531945542700,8.130542724609375,3.7716867923736572,1.1389836072921753,-0.34695929288864136
1772883531962136300,8.14713623046875,3.7597224712371826,1.7880367040634155,0.42293140292167664
1772883531978770700,8.163770751953125,5.371886730194092,3.1866414546966553,0.04666004329919815
1772883531995368200,8.1803681640625,7.726424217224121,4.860421180725098,-0.20817556977272034
1772883532011982600,8.196982666015625,7.877171993255615,7.616952896118164,-0.6287141442298889
1772883532028583700,8.213583740234375,7.7007012367248535,6.3732829093933105,3.2135608196258545
1772883532045188400,8.230188232421876,12.157333374023438,3.726821184158325,3.8668015003204346
1772883532061807600,8.2468076171875,16.968103408813477,2.630310297012329,0.9379864931106567
1772883532078399500,8.2633994140625,18.281763076782227,2.060220241546631,0.4001995921134949
1772883532095004400,8.28000439453125,16.679170608520508,3.662813186645508,0.6747759580612183
1772883532111610400,8.2966103515625,14.582459449768066,5.574678421020508,1.7383856773376465
1772883532128215800,8.3132158203125,13.61336612701416,6.75792932510376,2.6183462142944336
1772883532144806700,8.329806640625,12.56411361694336,6.978068828582764,2.985046148300171
1772883532161426200,8.34642626953125,13.210773468017578,6.966702938079834,2.3258235454559326
1772883532178017300,8.363017333984375,13.554143905639648,5.931209087371826,0.6472585201263428
1772883532194636800,8.37963671875,12.473784446716309,5.831906795501709,-0.9451649188995361
1772883532211239200,8.3962392578125,10.341180801391602,6.74237585067749,-1.0217353105545044
1772883532227851300,8.412851318359374,9.401400566101074,7.601997375488281,-0.26919254660606384
1772883532244453000,8.429453125,10.726426124572754,7.46500825881958,0.6789634227752686
1772883532261058300,8.446058349609375,12.621541023254395,6.850052833557129,1.1802598237991333
1772883532277663700,8.462663818359376,13.579268455505371,6.483353137969971,1.6265212297439575
1772883532294269200,8.479269287109375,12.918251037597656,6.241677761077881,1.6049858331680298
1772883532310871300,8.495871337890625,10.871191024780273,5.8061842918396,1.2400803565979004
1772883532327466500,8.512466552734375,9.131011009216309,5.200799942016602,0.4133601188659668
1772883532344072000,8.529072021484374,7.840083599090576,4.722235679626465,-0.08075776696205139
1772883532360676600,8.545676513671875,7.149155616760254,4.217947959899902,0.38344982266426086
1772883532377272000,8.56227197265625,7.149155616760254,3.4552359580993652,1.1718848943710327
1772883532393887700,8.5788876953125,7.206583499908447,2.5674986839294434,1.5332010984420776
1772883532410492000,8.595491943359375,7.112665176391602,2.001596212387085,1.5822539329528809
1772883532427100000,8.612099853515625,6.198606967926025,1.841277003288269,1.877767562866211
1772883532443704000,8.6287041015625,5.020740032196045,1.8628123998641968,1.7748762369155884
1772883532460312600,8.6453125,4.176671981811523,1.5230315923690796,1.2508480548858643
1772883532476934000,8.661933837890626,4.097708702087402,1.2149556875228882,0.7519445419311523
1772883532493533200,8.678533203125,3.813561201095581,0.9230313301086426,0.38285163044929504
1772883532510132700,8.6951328125,2.884547710418701,0.8524430394172668,0.7794619798660278
1772883532526741200,8.7117412109375,1.7922241687774658,1.2921242713928223,1.1048858165740967
1772883532543350500,8.7283505859375,1.3369896411895752,1.5744773149490356,1.1096714735031128
1772883532559965700,8.744965576171875,2.0380866527557373,1.373480200767517,0.8554341197013855
1772883532576564500,8.761564453125,3.3547372817993164,1.1904292106628418,0.44027936458587646
1772883532593166000,8.778166015625,3.9972102642059326,1.1868400573730469,-0.04187439754605293
1772883532609768000,8.794767822265625,3.920639991760254,1.5487544536590576,-0.4977070987224579
1772883532626363600,8.81136376953125,4.505086898803711,3.200998544692993,-2.2540390491485596
1772883532642982700,8.827982666015625,2.985046148300171,6.336792469024658,-3.8673996925354004
1772883532659571000,8.844571044921874,0.9936196208000183,5.441278457641602,0.01615155301988125
1772883532676179000,8.861178955078126,7.658827304840088,7.5326056480407715,0.07058826833963394
1772883532692798200,8.877798095703126,12.670594215393066,4.558925151824951,0.5174478888511658
1772883532709383400,8.894383544921874,15.151352882385254,3.2033913135528564,-0.1136590763926506
1772883532725996500,8.91099658203125,14.267205238342285,4.326223373413086,-1.114457130432129
1772883532742615000,8.927614990234375,13.965709686279297,5.157131195068359,-0.14057832956314087
1772883532759219500,8.944219482421875,15.375082015991211,5.361717224121094,0.09212367236614227
1772883532775824000,8.960823974609376,16.50808334350586,5.91087007522583,0.003589233849197626
1772883532792428300,8.97742822265625,17.693727493286133,5.979065418243408,0.8632107973098755
1772883532809021000,8.99402099609375,17.11167335510254,6.014359951019287,0.41216370463371277
1772883532825625600,9.01062548828125,15.031113624572754,5.970690727233887,-1.0348957777023315
1772883532842229800,9.027229736328126,12.680763244628906,6.379863262176514,-2.118844509124756
1772883532858841600,9.043841552734374,11.638689041137695,6.681957244873047,-1.856830358505249
1772883532875428000,9.060427978515625,11.859427452087402,6.832107067108154,-0.5706881880760193
1772883532892043800,9.077043701171876,12.512667655944824,6.86381196975708,-0.09092725813388824
1772883532908654600,9.093654541015624,12.521042823791504,6.442076683044434,-0.003589233849197626
1772883532925259800,9.110259765625,11.837891578674316,6.166304111480713,0.046061836183071136
1772883532941865700,9.12686572265625,10.349555969238281,6.056233882904053,0.45104706287384033
1772883532958473700,9.1434736328125,9.324830055236816,5.971288681030273,0.10707881301641464
1772883532975087000,9.160087158203124,9.047262191772461,5.555535793304443,-0.3678964674472809
1772883532991694800,9.17669482421875,9.068798065185547,5.2109694480896,-0.2847459018230438
1772883533008296700,9.193296630859376,8.995218276977539,4.984847545623779,0.3068794906139374
1772883533024909800,9.209909912109374,9.148359298706055,4.615156650543213,0.6765705943107605
1772883533041511200,9.22651123046875,9.595816612243652,3.683152198791504,0.5240281820297241
1772883533058134800,9.243134765625,9.208179473876953,2.703291416168213,-0.0933200865983963
1772883533074697700,9.25969775390625,8.139185905456543,2.05603289604187,-0.776470959186554
