time,seconds_elapsed,z,y,x
1772883524057988400,0.24298828125,-1.0328283309936523,0.16445016860961914,0.24350309371948242
1772883524074595000,0.259594970703125,-1.2405357360839844,0.3435494899749756,0.3912181258201599
1772883524091197400,0.276197509765625,-1.841566562652588,0.21010899543762207,0.22071295976638794
1772883524107803400,0.292803466796875,-2.306884288787842,-0.03355574607849121,-0.37787526845932007
1772883524124405500,0.309405517578125,-1.8720622062683105,-0.1836986541748047,-0.8647626042366028
1772883524141011700,0.32601171875,-1.3446521759033203,-0.45630931854248047,-1.0410168170928955
1772883524157592800,0.3425927734375,-0.9218778610229492,-0.7329543828964233,-0.997019350528717
1772883524174207700,0.359207763671875,-0.743657112121582,-0.8932695388793945,-0.7789410948753357
1772883524190819800,0.37581982421875,-0.8242321014404297,-0.9322047233581543,-0.44581472873687744
1772883524207419400,0.39241943359375,-0.7759294509887695,-0.9973883628845215,-0.13381314277648926
1772883524224027000,0.40902685546875,-0.5885028839111328,-1.2127829790115356,0.08791923522949219
1772883524240634400,0.42563427734375,-0.4235067367553711,-1.5119147300720215,0.1769862174987793
1772883524257253400,0.44225341796875,-0.5655412673950195,-1.8271136283874512,0.13452431559562683
1772883524273859600,0.458859619140625,-1.0567121505737305,-1.9322569370269775,0.019266262650489807
1772883524290460000,0.4754599609375,-1.488107681274414,-1.8037670850753784,-0.12532776594161987
1772883524307065900,0.49206591796875,-1.985041618347168,-1.3961584568023682,-0.16376936435699463
1772883524323671300,0.50867138671875,-2.4791998863220215,-0.919905424118042,-0.0014281868934631348
1772883524340277000,0.525277099609375,-2.0780324935913086,-0.47016477584838867,0.3440486788749695
1772883524356882700,0.541882568359375,-0.60546875,-0.07114434242248535,0.9493974447250366
1772883524373485300,0.5584853515625,1.799159049987793,0.2975490093231201,1.5885658264160156
1772883524390096600,0.5750966796875,3.4773502349853516,0.6817283630371094,1.7641181945800781
1772883524406701600,0.59170166015625,4.023837089538574,1.1228134632110596,1.5043867826461792
1772883524423312100,0.60831201171875,6.20992374420166,1.2265660762786865,1.1662418842315674
1772883524439910100,0.62491015625,8.876825332641602,0.7723250389099121,0.9315795302391052
1772883524456487700,0.64148779296875,10.052421569824219,1.1051764488220215,0.840541422367096
1772883524473107700,0.658107666015625,9.53928279876709,1.7319588661193848,1.5546330213546753
1772883524489714400,0.67471435546875,8.799132347106934,2.3501570224761963,1.9221714735031128
1772883524506318300,0.691318359375,8.387613296508789,2.525108575820923,1.589775800704956
1772883524522927000,0.707927001953125,6.9780473709106445,2.4097580909729004,0.7471033334732056
1772883524539531300,0.72453125,4.981118202209473,2.2593324184417725,-0.3409689962863922
1772883524556123400,0.741123291015625,3.7606029510498047,2.0823111534118652,-1.0670744180679321
1772883524572754400,0.75775439453125,3.0411853790283203,1.726440668106079,-1.0585416555404663
1772883524589358600,0.774358642578125,2.1537370681762695,1.3594417572021484,-0.5128487348556519
1772883524605954600,0.79095458984375,0.9023590087890625,0.9800722599029541,0.25481054186820984
1772883524622572800,0.80757275390625,-0.3772916793823242,0.45842766761779785,1.0922033786773682
1772883524639173400,0.82417333984375,-1.3988323211669922,-0.14656901359558105,1.467561960220337
1772883524655766500,0.8407666015625,-2.3381447792053223,-0.7854118347167969,1.0443828105926514
1772883524672386600,0.857386474609375,-3.3167896270751953,-1.093462347984314,0.22048836946487427
1772883524689013800,0.874013671875,-4.341886520385742,-0.9924439191818237,-0.2962730824947357
1772883524705596200,0.89059619140625,-5.554612159729004,-0.840252161026001,-0.22408396005630493
1772883524722187300,0.907187255859375,-6.228180408477783,-0.5890884399414062,-0.16405907273292542
1772883524738807300,0.923807373046875,-6.3653364181518555,-0.7245786190032959,-0.5405638217926025
1772883524755387000,0.940386962890625,-6.506612777709961,-1.0340988636016846,-1.1749436855316162
1772883524772015900,0.957015869140625,-6.863911151885986,-1.2254693508148193,-1.6707465648651123
1772883524788624000,0.973623779296875,-7.222731590270996,-1.2595280408859253,-1.6629327535629272
1772883524805228300,0.990228271484375,-7.553796291351318,-1.1411035060882568,-1.328629970550537
1772883524821832700,1.006832763671875,-7.433184623718262,-1.0694632530212402,-0.869841992855072
1772883524838444300,1.0234443359375,-7.278006553649902,-1.3440375328063965,-0.46821898221969604
1772883524855033600,1.04003369140625,-7.16911506652832,-1.7642664909362793,-0.2925983667373657
1772883524871653000,1.056653076171875,-7.02201509475708,-2.3217339515686035,-0.07567435503005981
1772883524888256500,1.073256591796875,-6.730693817138672,-2.7046706676483154,-0.2630594074726105
1772883524904861700,1.08986181640625,-6.42497444152832,-2.799473285675049,-0.3674095869064331
1772883524921448700,1.10644873046875,-5.871402740478516,-2.327258586883545,-0.3892889618873596
1772883524938076200,1.123076171875,-5.191740036010742,-1.4503612518310547,-0.6174230575561523
1772883524954665000,1.1396650390625,-4.194033622741699,-0.6316759586334229,-0.9041779041290283
1772883524971271200,1.156271240234375,-1.1008672714233398,0.9529893398284912,-1.992473840713501
1772883524987877000,1.172877197265625,4.03798770904541,0.2270803451538086,-0.1762361377477646
1772883525004482600,1.189482666015625,7.329156875610352,-1.1343598365783691,2.2661314010620117
1772883525021087000,1.2060869140625,7.462466239929199,-0.29357004165649414,2.691535234451294
1772883525037693000,1.22269287109375,8.244072914123535,0.6487441062927246,1.8320108652114868
1772883525054302700,1.239302734375,9.804422378540039,1.4581894874572754,0.2046506106853485
1772883525070922500,1.255922607421875,10.74740219116211,2.0109758377075195,-0.08376827836036682
1772883525087520800,1.272520751953125,10.52154541015625,2.3925068378448486,1.2597235441207886
1772883525104128500,1.28912841796875,11.736579895019531,2.2301316261291504,2.224046230316162
1772883525120726500,1.3057265625,13.115580558776855,2.1646664142608643,1.4497449398040771
1772883525137337600,1.322337646484375,11.15958309173584,2.260713815689087,0.523428201675415
1772883525153966600,1.338966552734375,7.565203666687012,2.388352155685425,0.0328177809715271
1772883525170549000,1.355549072265625,4.817666053771973,2.3634955883026123,-0.18732893466949463
1772883525187153400,1.3721533203125,3.762761116027832,1.9507627487182617,-0.3173435926437378
1772883525203760000,1.388760009765625,3.7453269958496094,1.315645694732666,-0.033939212560653687
1772883525220354600,1.4053544921875,4.2196044921875,0.6945445537567139,0.4585438370704651
1772883525236961800,1.4219619140625,3.6616945266723633,0.2049248218536377,0.6922721862792969
1772883525253559000,1.43855908203125,1.956202507019043,-0.17963480949401855,0.4506606459617615
1772883525270181000,1.45518115234375,0.1504383087158203,-0.6434035301208496,0.09268444776535034
1772883525286787600,1.47178759765625,-1.1424245834350586,-1.2262873649597168,-0.13160276412963867
1772883525303392300,1.488392333984375,-2.1483068466186523,-1.736133098602295,-0.20806986093521118
1772883525320002300,1.505002197265625,-2.8896961212158203,-1.9861737489700317,-0.061777740716934204
1772883525336595700,1.521595703125,-3.628894329071045,-2.105496406555176,0.06102004647254944
1772883525353186000,1.53818603515625,-4.470600128173828,-2.11405873298645,0.034364789724349976
1772883525369813000,1.55481298828125,-5.275207996368408,-2.2283401489257812,-0.06610071659088135
1772883525386405000,1.571405029296875,-5.853405475616455,-2.42830753326416,-0.3558212220668793
1772883525403027000,1.58802685546875,-6.321717262268066,-2.8345816135406494,-0.7575998306274414
1772883525419632400,1.60463232421875,-7.187189102172852,-3.267550468444824,-1.1838104724884033
1772883525436219100,1.62121923828125,-8.131843566894531,-3.4170892238616943,-1.3480849266052246
1772883525461131800,1.6461318359375,-8.436273574829102,-2.798447608947754,-0.9419665336608887
1772883525477747200,1.662747314453125,-7.782838821411133,-2.7305989265441895,-0.6818289160728455
1772883525494344400,1.679344482421875,-6.879964351654053,-2.826881170272827,-0.2439974695444107
1772883525510946000,1.695946044921875,-6.583545207977295,-3.0861294269561768,-0.028171822428703308
1772883525527554300,1.71255419921875,-7.0883588790893555,-3.6101698875427246,0.00810772180557251
1772883525544160500,1.729160400390625,-7.016735076904297,-4.144900321960449,1.072148084640503
1772883525560770000,1.74577001953125,-6.6083574295043945,-3.0901098251342773,0.36788439750671387
1772883525577379000,1.762379150390625,-6.3900556564331055,-1.8255572319030762,-0.35924065113067627
1772883525593995300,1.778995361328125,-5.434626579284668,0.49442148208618164,-2.0160605907440186
1772883525610595000,1.795594970703125,-6.540914535522461,-1.0342535972595215,-0.9783977270126343
1772883525627199200,1.81219921875,-4.4422407150268555,-0.13076210021972656,-1.7490100860595703
1772883525643807500,1.828807373046875,-0.8700265884399414,-0.504131555557251,-0.27696722745895386
1772883525660409600,1.84540966796875,2.4065980911254883,-2.4470558166503906,1.6237356662750244
1772883525677010000,1.862010009765625,5.404993057250977,-2.446701765060425,1.8832788467407227
1772883525693626400,1.87862646484375,8.306090354919434,-0.9935505390167236,1.150984525680542
1772883525710227200,1.895227294921875,10.672171592712402,-0.6826777458190918,0.4130617380142212
1772883525726828800,1.911828857421875,12.771450996398926,-1.7490358352661133,-0.2823927402496338
1772883525743442200,1.928442138671875,14.209489822387695,-2.9614369869232178,-0.7969701290130615
1772883525760043500,1.94504345703125,14.947518348693848,-2.82515549659729,-1.378260850906372
1772883525776648700,1.961648681640625,14.88686752319336,-0.8687658905982971,-1.7889838218688965
1772883525793240000,1.978239990234375,12.075932502746582,0.9014617204666138,-1.0539255142211914
1772883525809860600,1.994860595703125,8.270258903503418,0.5502153635025024,0.022670984268188477
1772883525826447400,2.011447265625,6.376038551330566,0.8725994229316711,0.03266429901123047
1772883525843058000,2.028057861328125,5.956977844238281,1.1640459299087524,-0.6078685522079468
1772883525859665700,2.044665771484375,5.535514831542969,1.0284311771392822,-1.2917317152023315
1772883525876267500,2.061267578125,4.64627742767334,0.6569422483444214,-1.4880410432815552
1772883525892875000,2.077875,2.7108144760131836,0.8431921005249023,-0.9095907211303711
1772883525909480700,2.094480712890625,-0.053412437438964844,1.3992644548416138,-0.16650086641311646
1772883525926093300,2.11109326171875,-2.5129828453063965,1.594949722290039,0.2001226544380188
1772883525942694400,2.1276943359375,-3.5832996368408203,1.543996810913086,0.01796489953994751
1772883525959296500,2.144296630859375,-4.170016288757324,1.0456585884094238,-0.25814497470855713
1772883525975900400,2.160900390625,-4.7689738273620605,0.3310391306877136,-0.48974835872650146
1772883525992507400,2.17750732421875,-5.362159252166748,-0.4371024966239929,-0.7968196272850037
1772883526009112000,2.194112060546875,-5.95950174331665,-0.9612741470336914,-1.0495169162750244
1772883526025715700,2.2107158203125,-6.348820209503174,-1.031150221824646,-1.1005487442016602
1772883526042339800,2.22733984375,-6.729292392730713,-1.0114171504974365,-0.7879377603530884
1772883526058946000,2.243946044921875,-7.168705940246582,-1.016721487045288,-0.4980081021785736
1772883526075543800,2.260543701171875,-7.033562183380127,-0.9912755489349365,-0.4498395323753357
1772883526092155400,2.2771552734375,-6.107021808624268,-1.2103146314620972,-0.38997843861579895
1772883526108757500,2.293757568359375,-5.529928207397461,-1.5150851011276245,-0.6419012546539307
1772883526125361700,2.310361572265625,-5.4019598960876465,-1.6510919332504272,-0.6434248685836792
1772883526141964000,2.326964111328125,-5.868328094482422,-1.529255747795105,-0.3186711072921753
1772883526158575600,2.34357568359375,-5.982840538024902,-1.050116777420044,-0.01859721541404724
1772883526175174000,2.360173828125,-5.559868812561035,-1.096136450767517,0.5367069840431213
1772883526191788800,2.376788818359375,-4.0452494621276855,-1.2791438102722168,0.6872325539588928
1772883526208389400,2.393389404296875,-1.0870599746704102,-0.6618616580963135,-0.9208067059516907
1772883526225014300,2.41001416015625,1.575383186340332,0.37888407707214355,-2.1377885341644287
1772883526241602000,2.42660205078125,2.4066953659057617,1.938746690750122,-1.7672812938690186
1772883526258221800,2.443221923828125,3.8586339950561523,3.1251277923583984,-0.20626282691955566
1772883526274809300,2.459809326171875,6.2523345947265625,2.02683162689209,-0.17561930418014526
1772883526291417000,2.4764169921875,7.361261367797852,1.6796574592590332,-1.2792026996612549
1772883526308024800,2.49302490234375,7.772068977355957,1.4671893119812012,-1.7269896268844604
1772883526324630300,2.50963037109375,8.448022842407227,0.9606938362121582,-2.225492477416992
1772883526341218300,2.52621826171875,9.300251007080078,0.4552798271179199,-1.7933934926986694
1772883526357845200,2.54284521484375,9.823397636413574,-0.05435943603515625,-0.5889965295791626
1772883526374435000,2.55943505859375,8.392908096313477,0.19823312759399414,0.8223084211349487
1772883526391052000,2.576052001953125,6.84446907043457,0.689429759979248,0.6153779029846191
1772883526407659500,2.592659423828125,6.210965156555176,0.1846301555633545,-0.21789932250976562
1772883526424244700,2.60924462890625,5.650104522705078,-0.45171022415161133,-0.4342782497406006
1772883526440853200,2.625853271484375,4.960906028747559,-0.8070436716079712,-0.03145408630371094
1772883526457458200,2.642458251953125,3.2341928482055664,-0.7286410331726074,0.2939537763595581
1772883526474048800,2.659048828125,1.2599916458129883,-0.2861480712890625,0.31362175941467285
1772883526490665200,2.675665283203125,-0.2923612594604492,0.14319729804992676,0.6209044456481934
1772883526507274200,2.692274169921875,-1.202291488647461,0.19135212898254395,1.1632447242736816
1772883526523880700,2.708880615234375,-1.5671453475952148,-0.03926897048950195,1.5474889278411865
1772883526540486400,2.725486328125,-1.6382684707641602,-0.47514355182647705,1.6907484531402588
1772883526557089800,2.74208984375,-2.1016359329223633,-0.8417496681213379,1.4378066062927246
1772883526573694000,2.75869384765625,-2.928946018218994,-1.0168746709823608,1.019891381263733
1772883526590320400,2.7753203125,-3.788468360900879,-0.9562786817550659,0.7177286148071289
1772883526606924000,2.791924072265625,-4.490248680114746,-0.7356116771697998,0.2353188842535019
1772883526623526100,2.808526123046875,-5.118439674377441,-0.4560425281524658,-0.15745365619659424
1772883526640130800,2.825130859375,-5.704521179199219,-0.4383150339126587,-0.19386672973632812
1772883526656735700,2.84173583984375,-6.161111354827881,-0.3711603879928589,-0.21476814150810242
1772883526673339000,2.8583388671875,-6.2596917152404785,-0.27198493480682373,-0.2744312286376953
1772883526689942000,2.87494189453125,-5.9071149826049805,-0.3944956064224243,-0.2727753520011902
1772883526706539000,2.8915390625,-5.931641578674316,-0.5367013216018677,-0.14210477471351624
1772883526723145200,2.908145263671875,-6.231882095336914,-0.6254360675811768,0.10900747776031494
1772883526739751700,2.924751708984375,-6.3979949951171875,-0.7718315124511719,0.23264437913894653
1772883526756355000,2.94135498046875,-6.3459882736206055,-1.1917734146118164,0.32465702295303345
1772883526772950000,2.957949951171875,-5.864229202270508,-1.6798970699310303,0.3924229145050049
1772883526789585700,2.974585693359375,-4.980154037475586,-2.1342966556549072,0.48875612020492554
1772883526806183700,2.99118359375,-3.848175525665283,-2.5048770904541016,0.5046677589416504
1772883526822793200,3.007793212890625,-2.801797866821289,-1.982698678970337,0.333296537399292
1772883526839394800,3.024394775390625,-1.7375268936157227,0.1049203872680664,-1.3403003215789795
1772883526856002300,3.041002197265625,-1.029658317565918,1.3011724948883057,-2.356196641921997
1772883526872585700,3.057585693359375,-0.08476448059082031,1.3588685989379883,0.35129210352897644
1772883526889219600,3.074219482421875,2.461191177368164,-0.052800893783569336,2.177882194519043
1772883526905814800,3.090814697265625,6.220394134521484,-0.22079229354858398,1.2455015182495117
1772883526922430700,3.1074306640625,9.167135238647461,-0.36791563034057617,0.34937894344329834
1772883526939013400,3.124013427734375,10.686655044555664,0.09235382080078125,0.013362735509872437
1772883526955622000,3.140621826171875,9.531817436218262,0.8246259689331055,1.124350666999817
1772883526997132800,3.1821328125,7.716960906982422,2.5454061031341553,1.1370593309402466
1772883527013741000,3.198740966796875,8.886343002319336,2.0973353385925293,0.5855058431625366
1772883527030344400,3.215344482421875,9.4105224609375,0.697181224822998,-0.2543106973171234
1772883527046966300,3.23196630859375,8.903827667236328,0.015752077102661133,-1.224896788597107
1772883527063568400,3.248568359375,7.231285095214844,0.2554628849029541,-1.3268508911132812
1772883527080174000,3.265174072265625,5.048442840576172,0.6791057586669922,-0.8155356645584106
1772883527096779500,3.281779541015625,2.644796371459961,0.854956865310669,-0.17559826374053955
1772883527113368000,3.2983681640625,0.4527568817138672,0.8726201057434082,-0.0728948712348938
1772883527129990700,3.31499072265625,-1.4028220176696777,0.6000990867614746,-0.22219538688659668
1772883527146596000,3.33159619140625,-2.5788002014160156,0.03125357627868652,-0.2660221755504608
1772883527163206000,3.348205810546875,-2.825089454650879,-0.7983443737030029,-0.007707126438617706
1772883527179806000,3.364805908203125,-2.7128567695617676,-1.5956459045410156,0.25601840019226074
1772883527196412000,3.381411865234375,-3.0108542442321777,-2.092538356781006,0.25390276312828064
1772883527213013200,3.39801318359375,-3.8781991004943848,-2.1122195720672607,0.1997402310371399
1772883527229629200,3.414629150390625,-4.83849573135376,-1.8926661014556885,0.2251739203929901
1772883527246223600,3.4312236328125,-4.955033302307129,-1.4104788303375244,-0.010388970375061035
1772883527262823200,3.4478232421875,-4.618948936462402,-1.1092984676361084,-0.18564115464687347
1772883527279438800,3.46443896484375,-4.319354057312012,-0.8279513120651245,-0.2589351534843445
1772883527296044500,3.48104443359375,-4.606839179992676,-0.6596349477767944,-0.0011072754859924316
1772883527312638000,3.497637939453125,-5.231781959533691,-0.43560147285461426,0.467603474855423
1772883527329255700,3.514255615234375,-5.7605390548706055,-0.2856588363647461,0.8689471483230591
1772883527345856500,3.5308564453125,-5.76507043838501,-0.4094400405883789,0.871835470199585
1772883527362470700,3.547470703125,-5.508882999420166,-1.0059256553649902,0.5111716985702515
1772883527379071200,3.5640712890625,-5.4505109786987305,-1.786600112915039,0.11888684332370758
1772883527395677000,3.580677001953125,-5.417018890380859,-2.4999773502349854,-0.19385375082492828
1772883527412276500,3.5972763671875,-5.285614967346191,-2.8861100673675537,-0.10937479138374329
1772883527428871000,3.613870849609375,-4.991515159606934,-2.7852654457092285,0.20334360003471375
1772883527445479400,3.6304794921875,-4.7954840660095215,-2.4395134449005127,0.06961864233016968
1772883527462085000,3.647085205078125,-3.7977919578552246,-0.4143240451812744,-2.0895955562591553
1772883527478694000,3.66369384765625,-3.8727025985717773,1.0020983219146729,-2.3662049770355225
1772883527495296000,3.6802958984375,-2.355283737182617,0.60953688621521,-0.06025110185146332
1772883527511888400,3.696888427734375,2.342677116394043,0.87209153175354,0.8801497220993042
1772883527528523300,3.713523193359375,6.472628593444824,-0.5642085075378418,-0.05513462424278259
1772883527545130000,3.7301298828125,9.071651458740234,-1.1681761741638184,-0.880038857460022
1772883527561727700,3.746727783203125,9.265936851501465,-0.5555436611175537,-0.6819595098495483
1772883527578336000,3.7633359375,7.263764381408691,0.8640851974487305,0.10685268044471741
1772883527594941700,3.779941650390625,4.848940849304199,2.745959520339966,1.0331320762634277
1772883527611520000,3.79652001953125,3.4290170669555664,3.727933406829834,2.025815725326538
1772883527628150800,3.81315087890625,4.357337951660156,3.50732421875,2.110280752182007
1772883527644764000,3.829763916015625,6.894375801086426,2.4227726459503174,1.222907543182373
1772883527661357800,3.84635791015625,8.496572494506836,1.105886697769165,0.0833994448184967
1772883527677969000,3.862968994140625,8.157822608947754,0.9899270534515381,-0.10611182451248169
1772883527694574600,3.87957470703125,6.501056671142578,1.743453025817871,0.5732182264328003
1772883527711179800,3.8961796875,4.9378252029418945,2.3096702098846436,1.2241231203079224
1772883527727785200,3.91278515625,3.647390365600586,2.2520041465759277,1.4905261993408203
1772883527744387300,3.92938720703125,2.772624969482422,1.8469383716583252,1.2635992765426636
1772883527761000400,3.94600048828125,1.8184967041015625,1.3195972442626953,1.0701713562011719
1772883527777567500,3.9625673828125,0.6794300079345703,0.571157693862915,0.7302983999252319
1772883527794206700,3.979206787109375,-0.5152091979980469,-0.05681467056274414,0.16490688920021057
1772883527810795500,3.99579541015625,-1.3768815994262695,-0.43096017837524414,-0.06451022624969482
1772883527827417900,4.01241796875,-1.669698715209961,-0.6340258121490479,0.5495356321334839
1772883527844023600,4.0290234375,-2.067720890045166,-0.9095847606658936,1.042715311050415
1772883527860628200,4.045628173828125,-2.8453798294067383,-1.2621400356292725,1.0675766468048096
1772883527877234000,4.06223388671875,-3.1984634399414062,-1.4999206066131592,0.758159875869751
1772883527893839600,4.078839599609375,-3.5309090614318848,-1.815220594406128,0.3518661558628082
1772883527910423000,4.095423095703125,-4.289434432983398,-1.8946723937988281,0.25291839241981506
1772883527927036400,4.112036376953125,-5.123661994934082,-1.7379603385925293,0.5231105089187622
1772883527943642400,4.128642333984375,-5.523406028747559,-1.6744530200958252,0.6292421817779541
1772883527960248000,4.145248046875,-5.5999956130981445,-1.7930327653884888,0.5000518560409546
1772883527976852700,4.161852783203125,-5.643689155578613,-2.0163660049438477,0.21145115792751312
1772883527993458200,4.178458251953125,-5.938121318817139,-2.217182159423828,-0.017984960228204727
1772883528010053000,4.19505322265625,-6.326617240905762,-2.352935314178467,-0.030046312138438225
1772883528026686500,4.2116865234375,-6.456655502319336,-2.30940580368042,0.1559850126504898
1772883528043283700,4.22828369140625,-6.075474262237549,-2.2140049934387207,0.26254284381866455
1772883528059897600,4.244897705078125,-5.293403148651123,-2.1658120155334473,0.251051127910614
1772883528076499000,4.2614990234375,-4.892867088317871,-2.1497669219970703,0.15427380800247192
1772883528093104600,4.278104736328125,-4.448898792266846,-1.0983948707580566,-0.8599422574043274
1772883528109693200,4.294693115234375,-4.337823867797852,1.3136255741119385,-2.693209648132324
1772883528126299000,4.311298828125,-4.840565204620361,0.1141519546508789,-0.9681995511054993
1772883528142916400,4.327916259765625,-1.1139640808105469,0.17868375778198242,-0.7302631735801697
1772883528159530500,4.344530517578125,2.9640684127807617,-0.37180614471435547,-0.26591718196868896
1772883528176114400,4.361114501953125,5.658290863037109,-1.2152047157287598,0.1839580535888672
1772883528192736800,4.37773681640625,6.537073135375977,-0.715975284576416,0.008793503046035767
1772883528209343700,4.39434375,6.006006240844727,0.5225460529327393,0.14277979731559753
1772883528225936400,4.410936279296875,5.183897972106934,1.6701321601867676,0.6276980638504028
1772883528242550500,4.427550537109375,5.42238712310791,2.0925049781799316,1.0449695587158203
1772883528259160600,4.44416064453125,6.334944725036621,1.9600017070770264,1.0344796180725098
1772883528275750100,4.460750244140625,6.893238067626953,1.3210515975952148,0.7159180641174316
1772883528292369700,4.47736962890625,6.639622688293457,1.1988558769226074,-0.02755749225616455
1772883528308942000,4.493942138671875,5.716919898986816,1.2958595752716064,-0.2821944057941437
1772883528325580300,4.510580322265625,4.727707862854004,1.6286752223968506,-0.053153857588768005
1772883528342177300,4.52717724609375,4.384574890136719,2.1536285877227783,0.26602205634117126
1772883528358800000,4.5437998046875,4.652400970458984,2.2293078899383545,0.8177729845046997
1772883528375383600,4.560383544921875,4.96303653717041,1.755725383758545,1.1290388107299805
1772883528391997400,4.57699755859375,4.722470283508301,1.1804730892181396,0.9226235747337341
1772883528408581400,4.593581298828125,3.819441795349121,0.7374114990234375,0.5587586164474487
1772883528425199000,4.61019921875,2.6646862030029297,0.5162060260772705,0.27737659215927124
1772883528441804300,4.62680419921875,1.4038581848144531,0.2195451259613037,0.11662787199020386
1772883528458409700,4.64340966796875,0.14430713653564453,0.03721499443054199,0.31809771060943604
1772883528475015400,4.660015380859375,-1.3502178192138672,-0.09309911727905273,0.7139920592308044
1772883528491620900,4.676620849609375,-2.556748390197754,-0.17155790328979492,0.7925131916999817
1772883528508216000,4.693216064453125,-3.4452953338623047,-0.4020059108734131,0.5730799436569214
1772883528524844800,4.7098447265625,-4.3095197677612305,-0.7935978174209595,0.4145243763923645
1772883528541447700,4.72644775390625,-5.087030410766602,-1.0876469612121582,0.2294798493385315
1772883528558059500,4.7430595703125,-5.436821937561035,-1.1500580310821533,-0.24307730793952942
1772883528574644200,4.759644287109375,-5.350131034851074,-1.1629599332809448,-0.6545228958129883
1772883528591266800,4.776266845703125,-5.376309394836426,-1.2769596576690674,-0.5318140387535095
1772883528607861000,4.792861083984375,-5.9363932609558105,-1.3050172328948975,-0.17107254266738892
1772883528624478000,4.80947802734375,-6.44117546081543,-1.2630515098571777,-0.2214418351650238
1772883528641082400,4.826082275390625,-6.314644813537598,-1.2829341888427734,-0.7153708934783936
1772883528657688600,4.8426884765625,-5.754890441894531,-1.6725287437438965,-1.0562653541564941
1772883528674264800,4.859264892578125,-5.653636932373047,-2.2254068851470947,-1.1124451160430908
1772883528690899200,4.875899169921875,-6.026968479156494,-2.482164144515991,-1.1415950059890747
1772883528707490800,4.89249072265625,-6.222654342651367,-2.3879714012145996,-1.0850703716278076
1772883528724110600,4.909110595703125,-6.051771640777588,-2.252528190612793,-0.8180834650993347
1772883528740711200,4.925711181640625,-5.317122936248779,-2.0522570610046387,-0.9427361488342285
1772883528757325000,4.942324951171875,-3.3633317947387695,-0.3923521041870117,-2.6167192459106445
1772883528773909500,4.958909423828125,-2.783278465270996,0.7798876762390137,-3.1187820434570312
1772883528790531300,4.97553125,-1.6914482116699219,-0.07167959213256836,-0.6002304553985596
1772883528807136800,4.99213671875,1.7778348922729492,0.5668461322784424,0.9919111728668213
1772883528823743000,5.008742919921875,4.006511688232422,-0.4561431407928467,2.0552892684936523
1772883528840340200,5.02534033203125,5.410211563110352,-0.8003020286560059,1.3454010486602783
1772883528856960500,5.04196044921875,6.081233024597168,-0.5836026668548584,-0.13076967000961304
1772883528873543400,5.05854345703125,6.392040252685547,0.23871183395385742,-1.452051043510437
1772883528890147000,5.07514697265625,6.226563453674316,1.2038636207580566,-0.904986560344696
1772883528906737000,5.09173681640625,6.583528518676758,1.7351734638214111,1.4809660911560059
1772883528923344600,5.1083447265625,7.968409538269043,1.3925325870513916,3.2983345985412598
1772883528939966700,5.124966796875,8.58034610748291,1.4353702068328857,2.595391035079956
1772883528956572700,5.14157275390625,8.123763084411621,1.6174383163452148,1.0578222274780273
1772883528973177000,5.158177001953125,6.786458969116211,1.3409337997436523,0.4846687912940979
1772883528989782800,5.17478271484375,5.981362342834473,1.4558329582214355,0.3894546627998352
1772883529006392600,5.191392578125,6.612096786499023,1.7742938995361328,0.3998897671699524
1772883529023007500,5.208007568359375,7.123876571655273,1.7958548069000244,0.315832257270813
1772883529039605800,5.224605712890625,6.54372501373291,1.8085987567901611,0.7139418125152588
1772883529056221400,5.241221435546875,5.187788009643555,1.6820955276489258,1.5389084815979004
1772883529072807200,5.25780712890625,4.081555366516113,1.313004732131958,1.930783748626709
1772883529089425700,5.27442578125,3.0199594497680664,0.558502197265625,1.7292160987854004
1772883529106059300,5.291059326171875,1.7134771347045898,-0.32097959518432617,1.2453930377960205
1772883529122640100,5.30764013671875,0.6048698425292969,-0.9277927875518799,0.5623513460159302
1772883529139241000,5.324240966796875,-0.23406600952148438,-1.2511205673217773,-0.04229116439819336
1772883529155854800,5.340854736328125,-1.7820615768432617,-1.3517358303070068,-0.2969646453857422
1772883529172455700,5.35745556640625,-3.8395957946777344,-1.0924867391586304,-0.5352399349212646
1772883529189045000,5.374044921875,-5.757834434509277,-0.9968403577804565,-0.7061843872070312
1772883529205654800,5.39065478515625,-6.880091667175293,-1.0520298480987549,-0.9390782117843628
1772883529222272500,5.4072724609375,-7.485815048217773,-1.1529802083969116,-1.1812371015548706
1772883529238871600,5.42387158203125,-7.8949127197265625,-1.2725024223327637,-1.3440937995910645
1772883529255488500,5.440488525390625,-7.883418560028076,-1.4412447214126587,-1.3102041482925415
1772883529272088300,5.45708837890625,-7.4332380294799805,-1.5825023651123047,-1.1021010875701904
1772883529288694000,5.473694091796875,-6.8401079177856445,-1.7934821844100952,-0.8437751531600952
1772883529305299000,5.490298828125,-6.618898868560791,-2.172313928604126,-0.7881604433059692
1772883529321909500,5.506909423828125,-6.97129487991333,-2.742738962173462,-0.771743655204773
1772883529338501000,5.523501220703125,-7.561662673950195,-3.3467555046081543,-0.5719205141067505
1772883529355119600,5.54011962890625,-7.515206336975098,-3.510051727294922,-0.5659970045089722
1772883529371704000,5.5567041015625,-6.517252445220947,-3.326457977294922,-1.1483287811279297
1772883529388305200,5.57330517578125,-5.059054374694824,-2.1390042304992676,-2.8160054683685303
1772883529404910300,5.589910400390625,-4.732754707336426,0.25649213790893555,-4.834712505340576
1772883529421523700,5.606523681640625,-5.774908065795898,-1.3720862865447998,-2.4535109996795654
1772883529438126800,5.623126953125,-3.926906108856201,0.24993419647216797,-1.4280797243118286
1772883529454735600,5.639735595703125,-0.7861242294311523,0.8091249465942383,0.36238178610801697
1772883529471339500,5.656339599609375,2.9160919189453125,-0.7365918159484863,1.343043565750122
1772883529487942700,5.672942626953125,5.832012176513672,-0.742241621017456,-0.31972959637641907
1772883529504567000,5.689567138671875,6.353660583496094,-0.6609435081481934,-0.45711296796798706
1772883529521145600,5.7061455078125,6.198803901672363,-0.9828565120697021,0.5614988803863525
1772883529537773800,5.72277392578125,5.949892044067383,-1.0053520202636719,1.2729264497756958
1772883529554388700,5.739388671875,6.358832359313965,-0.3886246681213379,1.437084436416626
1772883529570980400,5.75598046875,7.509960174560547,0.7141907215118408,1.2566219568252563
1772883529587574800,5.77257470703125,8.730382919311523,1.466855525970459,1.4524251222610474
1772883529604176100,5.789176025390625,8.73855972290039,1.4504292011260986,1.7788589000701904
1772883529620805400,5.805805419921875,8.118290901184082,1.565979242324829,1.8060581684112549
1772883529637391600,5.8223916015625,7.558219909667969,2.0879549980163574,1.6808412075042725
1772883529654015500,5.839015380859375,7.573890686035156,2.286506414413452,1.4610469341278076
1772883529670583300,5.855583251953125,7.581018447875977,1.87430739402771,1.2911348342895508
1772883529687211300,5.872211181640625,6.698836326599121,1.3964147567749023,0.9787797927856445
1772883529703822300,5.888822265625,4.923391342163086,1.3333826065063477,0.8013770580291748
1772883529720407800,5.90540771484375,2.7104482650756836,1.6068825721740723,1.1170181035995483
1772883529737023000,5.92202294921875,1.0779294967651367,1.722623586654663,1.0619423389434814
1772883529753634600,5.938634521484375,0.3693561553955078,1.225454568862915,0.5961453914642334
1772883529770236400,5.955236328125,0.2545127868652344,0.5785921812057495,0.2081221044063568
1772883529786842400,5.97184228515625,-0.0034761428833007812,0.07946527004241943,-0.017325013875961304
1772883529803447300,5.988447265625,-0.8146381378173828,-0.22081923484802246,-0.0644257664680481
1772883529820056600,6.005056640625,-2.066187858581543,-0.26858222484588623,-0.03355327248573303
1772883529836664800,6.021664794921875,-3.2738513946533203,-0.326987624168396,-0.06553196907043457
1772883529853284600,6.03828466796875,-4.109546184539795,-0.4422047734260559,-0.0906253457069397
1772883529869865700,6.05486572265625,-4.682560443878174,-0.6242822408676147,-0.17113715410232544
1772883529886461700,6.071461669921875,-5.319447994232178,-0.7822121381759644,-0.1657402515411377
1772883529903066600,6.088066650390625,-6.038867950439453,-0.8350583910942078,-0.06479990482330322
1772883529919685400,6.104685302734375,-6.51922607421875,-0.8487635850906372,0.08950239419937134
1772883529936287700,6.121287841796875,-6.78607177734375,-0.9941438436508179,0.10143221914768219
1772883529952899600,6.137899658203125,-6.792813301086426,-1.2689276933670044,0.03540213406085968
1772883529969501200,6.154501220703125,-6.815421104431152,-1.6395983695983887,0.16128641366958618
1772883529986113300,6.17111328125,-6.877481937408447,-1.8850805759429932,0.16878575086593628
1772883530002739700,6.18773974609375,-7.064709663391113,-2.0445923805236816,0.11134510487318039
1772883530019331600,6.20433154296875,-7.016049861907959,-2.154365062713623,0.034234821796417236
1772883530035932700,6.2209326171875,-6.653215408325195,-2.0984089374542236,-0.23202669620513916
1772883530052546300,6.23754638671875,-6.032681465148926,-1.462357521057129,-1.0497874021530151
1772883530069131300,6.25413134765625,-5.605920791625977,0.10456275939941406,-1.9789639711380005
1772883530085759200,6.27075927734375,-4.799588680267334,-1.1117379665374756,-0.04829850420355797
1772883530102352100,6.28735205078125,-0.9055871963500977,-0.46929121017456055,0.4539260268211365
1772883530118988500,6.303988525390625,4.196263313293457,-0.7292602062225342,0.30134645104408264
1772883530135568000,6.32056787109375,7.473954200744629,-2.2875399589538574,0.2870052754878998
1772883530152178400,6.337178466796875,8.081594467163086,-2.1580934524536133,-0.4140791893005371
1772883530168763400,6.353763427734375,8.022098541259766,-1.4833580255508423,-0.8227118253707886
1772883530185368600,6.37036865234375,9.244893074035645,-0.8895257711410522,-0.48063939809799194
1772883530201986800,6.38698681640625,10.155640602111816,-0.3142049312591553,0.5504584908485413
1772883530218600400,6.403600341796875,9.95999526977539,0.6146814823150635,1.7702158689498901
1772883530235207700,6.420207763671875,8.970707893371582,2.1135807037353516,1.945645809173584
1772883530251800300,6.43680029296875,6.921441078186035,2.9860191345214844,1.9535353183746338
1772883530268436700,6.453436767578125,4.112181663513184,2.9220430850982666,1.9952062368392944
1772883530285017900,6.470017822265625,2.3678598403930664,3.2165091037750244,1.1290254592895508
1772883530301616400,6.486616455078125,2.681647300720215,3.1252481937408447,0.41221708059310913
1772883530318235000,6.50323486328125,3.6199588775634766,2.3045005798339844,0.2268514633178711
1772883530334827300,6.5198271484375,4.117029190063477,1.388056993484497,-0.0767940878868103
1772883530351446300,6.5364462890625,3.365926742553711,0.554115891456604,-0.03034045919775963
1772883530368027400,6.55302734375,1.5348587036132812,0.37362945079803467,0.26173490285873413
1772883530384636400,6.569636474609375,-0.08966922760009766,0.3400942087173462,0.6779184341430664
1772883530401241900,6.586241943359375,-0.016641616821289062,0.25852465629577637,0.3602929711341858
1772883530417847600,6.60284765625,0.2764406204223633,-0.22725969552993774,0.41299867630004883
1772883530434450000,6.619449951171875,-0.5090618133544922,-0.3818817138671875,0.2405931055545807
1772883530451060200,6.636060302734375,-2.153442859649658,-0.5000272989273071,0.21345911920070648
1772883530467654100,6.652654052734375,-4.136510372161865,-0.4439735412597656,0.26072806119918823
1772883530484272600,6.669272705078125,-5.750636100769043,-0.11156266927719116,0.17685556411743164
1772883530500886800,6.68588671875,-6.5796284675598145,0.10881644487380981,-0.08991090208292007
1772883530517496600,6.70249658203125,-6.437547206878662,0.18662065267562866,-0.3662203252315521
1772883530534092000,6.719092041015625,-5.981329917907715,0.06439900398254395,-0.4206433594226837
1772883530550708200,6.735708251953125,-5.942370414733887,-0.07502585649490356,-0.428180456161499
1772883530567308800,6.752308837890625,-5.994072914123535,-0.2063918113708496,-0.5993888974189758
1772883530583914800,6.768914794921875,-6.011399269104004,-0.42756569385528564,-0.6912863850593567
1772883530600515800,6.785515869140625,-6.095965385437012,-0.5617600083351135,-0.5303074717521667
1772883530617130000,6.8021298828125,-6.30281925201416,-0.512237012386322,-0.18301652371883392
1772883530633723000,6.818722900390625,-5.923406600952148,-0.3392331600189209,0.33189284801483154
1772883530650344200,6.83534423828125,-4.644266128540039,-0.10105204582214355,0.690732479095459
1772883530666934300,6.851934326171875,-3.076052188873291,0.013660788536071777,0.4590820372104645
1772883530683547100,6.868547119140625,-0.48718929290771484,0.39490199089050293,-0.7363028526306152
1772883530700152600,6.885152587890625,1.6164121627807617,2.4624502658843994,-3.5848023891448975
1772883530716757500,6.901757568359375,0.6823558807373047,2.5859789848327637,-2.27993106842041
1772883530733359600,6.918359619140625,0.2668437957763672,1.76639723777771,0.9576931595802307
1772883530749972700,6.93497265625,3.1659107208251953,-0.08098268508911133,1.488473892211914
1772883530766590000,6.95158984375,7.665157318115234,-2.8652877807617188,-0.1817057728767395
1772883530783179500,6.968179443359375,9.738848686218262,-3.7720260620117188,-1.308861494064331
1772883530799777300,6.98477734375,8.514052391052246,-2.748215436935425,-0.2039472460746765
1772883530816397000,7.00139697265625,5.83821964263916,-0.959735631942749,0.9038524627685547
1772883530832989400,7.017989501953125,5.577086448669434,0.78037428855896,1.1057854890823364
1772883530849590800,7.0345908203125,6.032709121704102,0.6595730781555176,1.9122397899627686
1772883530866193700,7.051193603515625,5.885875701904297,0.6675887107849121,2.276430130004883
1772883530882798800,7.067798828125,4.929806709289551,0.7180771827697754,1.5703446865081787
1772883530899403000,7.084403076171875,4.185267448425293,0.420224666595459,0.08303466439247131
1772883530916012000,7.101011962890625,4.643222808837891,0.42718505859375,-1.2131634950637817
1772883530932608000,7.11760791015625,4.652092933654785,0.3400764465332031,-1.1899152994155884
1772883530949223200,7.13422314453125,4.294081687927246,0.8764944076538086,-0.3476383090019226
1772883530965811000,7.15081103515625,3.7058563232421875,1.5407698154449463,0.20028749108314514
1772883530982447600,7.167447509765625,3.050870895385742,1.964418888092041,0.5453070998191833
1772883530999049500,7.184049560546875,1.9372997283935547,1.862428903579712,0.9089998006820679
1772883531015654000,7.20065380859375,0.0539093017578125,1.4086461067199707,0.9952887892723083
1772883531032253200,7.217253173828125,-1.7113103866577148,0.7330865859985352,0.7782971858978271
1772883531048873700,7.233873779296875,-2.4636192321777344,-0.26918911933898926,0.5062627792358398
1772883531065454600,7.25045458984375,-2.35654354095459,-1.470881700515747,0.3326427936553955
1772883531082077000,7.267076904296875,-2.234127998352051,-2.3578505516052246,0.3166678547859192
1772883531098677500,7.283677490234375,-2.816134452819824,-2.7192070484161377,0.4565838575363159
1772883531115297300,7.30029736328125,-3.7781009674072266,-2.660191059112549,0.7483123540878296
1772883531131883500,7.316883544921875,-4.71951961517334,-2.5399560928344727,0.9185128211975098
1772883531148501500,7.33350146484375,-5.404116630554199,-2.515730619430542,0.8192731142044067
1772883531165089300,7.35008935546875,-5.860406398773193,-2.5488028526306152,0.5561301708221436
1772883531181708500,7.36670849609375,-6.1071014404296875,-2.5283703804016113,0.34237366914749146
1772883531198315500,7.3833154296875,-6.367690086364746,-2.4904632568359375,0.42772698402404785
1772883531214918000,7.39991796875,-6.905300617218018,-2.4131293296813965,0.5961217284202576
1772883531231518200,7.416518310546875,-7.195621490478516,-2.4028403759002686,0.5936286449432373
1772883531248137700,7.4331376953125,-7.11731481552124,-2.55367112159729,0.45643889904022217
1772883531264718800,7.44971875,-6.68794584274292,-2.8205785751342773,0.19611984491348267
1772883531281341400,7.466341552734375,-6.103131294250488,-2.939396858215332,-0.10906988382339478
1772883531297939500,7.482939453125,-5.38313102722168,-2.977898597717285,-0.11953869462013245
1772883531314559500,7.4995595703125,-4.976278305053711,-2.975987434387207,-0.24082443118095398
1772883531331160600,7.51616064453125,-4.6569390296936035,-1.2915987968444824,-1.8554424047470093
1772883531347741400,7.532741455078125,-6.532072067260742,0.9792742729187012,-2.3108513355255127
1772883531364354000,7.54935400390625,-7.175992488861084,0.19015121459960938,0.7596387267112732
1772883531380959700,7.565959716796875,-0.23160076141357422,1.5571656227111816,0.4902147650718689
1772883531397565000,7.58256494140625,5.910816192626953,-0.5343818664550781,0.5236856341362
1772883531414168000,7.59916796875,7.731220245361328,-2.5255823135375977,0.6638198494911194
1772883531430775000,7.615775146484375,6.049263954162598,-1.4271726608276367,-0.2516281008720398
1772883531447384300,7.63238427734375,3.7635574340820312,1.0705976486206055,-0.7314526438713074
1772883531463973600,7.6489736328125,4.172240257263184,2.342966079711914,-0.024716943502426147
1772883531480609300,7.665609375,6.827418327331543,3.026684045791626,0.8224338293075562
1772883531497211000,7.6822109375,9.85727310180664,3.0702621936798096,1.9817309379577637
1772883531513819100,7.698819091796875,11.815722465515137,2.3303747177124023,2.1543869972229004
1772883531530422000,7.715422119140625,11.141327857971191,1.8841497898101807,0.32929858565330505
1772883531547024600,7.732024658203125,7.754742622375488,2.1782708168029785,-1.1116020679473877
1772883531563617300,7.7486171875,4.769619941711426,3.005598545074463,-1.5220201015472412
1772883531580238300,7.76523828125,4.523839950561523,3.3033175468444824,-0.8312110900878906
1772883531596843500,7.781843505859375,5.832047462463379,2.854039430618286,0.2378423810005188
1772883531613449000,7.798448974609375,6.745736122131348,2.109795093536377,0.8286211490631104
1772883531630054000,7.815053955078125,5.562508583068848,1.4358067512512207,0.3344826102256775
1772883531646659000,7.8316591796875,2.6158523559570312,1.088679313659668,-0.433187872171402
1772883531663255000,7.848255126953125,-0.8012056350708008,0.87558913230896,-0.9044891595840454
1772883531679870700,7.86487060546875,-3.1083908081054688,0.4006319046020508,-0.5452901721000671
1772883531696471300,7.88147119140625,-3.1652932167053223,-0.37200236320495605,0.23804879188537598
1772883531713085000,7.8980849609375,-1.365762710571289,-1.3968915939331055,0.16324079036712646
1772883531729686800,7.914686767578125,0.09628772735595703,-2.088944673538208,-0.2711174488067627
1772883531746291700,7.931291748046875,-0.2983226776123047,-2.289592981338501,-0.11877334117889404
1772883531762886700,7.94788671875,-2.1080374717712402,-1.9552361965179443,0.25513362884521484
1772883531779502600,7.964502685546875,-4.271275997161865,-1.652642011642456,0.38625407218933105
1772883531796102000,7.981101806640625,-5.535924911499023,-1.5837429761886597,-0.008397936820983887
1772883531812719600,7.9977197265625,-5.608370780944824,-1.8231253623962402,-0.4676200747489929
1772883531829301800,8.0143017578125,-5.1195197105407715,-1.8841283321380615,-0.7875273823738098
1772883531845910300,8.03091015625,-5.089098930358887,-1.929181456565857,-1.009831428527832
1772883531862495000,8.047494873046874,-5.312993049621582,-1.6696178913116455,-0.8203482627868652
1772883531879121700,8.06412158203125,-5.4833455085754395,-1.5341415405273438,-0.18986725807189941
1772883531895726000,8.08072607421875,-6.096808433532715,-1.5721598863601685,0.33291465044021606
1772883531912332000,8.09733203125,-6.4843854904174805,-1.7492626905441284,0.2937251627445221
1772883531928937500,8.1139375,-5.9748029708862305,-2.1108298301696777,-0.3821699917316437
1772883531945542700,8.130542724609375,-5.442119598388672,-2.4525468349456787,-0.7724406719207764
1772883531962136300,8.14713623046875,-5.325143814086914,-2.231541633605957,-0.2175426036119461
1772883531978770700,8.163770751953125,-4.067399024963379,-1.1926367282867432,-0.3530530333518982
1772883531995368200,8.1803681640625,-1.870004653930664,0.15074443817138672,-0.6958636045455933
1772883532011982600,8.196982666015625,-0.9146232604980469,2.5762600898742676,-1.34437096118927
1772883532028583700,8.213583740234375,-1.0738296508789062,2.1925225257873535,1.2837283611297607
1772883532045188400,8.230188232421876,2.1020736694335938,0.055223941802978516,2.827075719833374
1772883532061807600,8.2468076171875,6.781857490539551,-1.2877521514892578,0.6783379912376404
1772883532078399500,8.2633994140625,9.030012130737305,-2.033888339996338,-0.3074488639831543
1772883532095004400,8.28000439453125,8.266738891601562,-1.0464694499969482,-0.18427520990371704
1772883532111610400,8.2966103515625,6.365337371826172,0.7549877166748047,0.7720112204551697
1772883532128215800,8.3132158203125,5.116052627563477,2.095578670501709,1.7299846410751343
1772883532144806700,8.329806640625,4.111651420593262,2.534698963165283,2.2982287406921387
1772883532161426200,8.34642626953125,4.272351264953613,2.5664777755737305,1.964071273803711
1772883532178017300,8.363017333984375,4.753566741943359,1.7106513977050781,0.6542261242866516
1772883532194636800,8.37963671875,4.108250617980957,1.2880125045776367,-0.8389230966567993
1772883532211239200,8.3962392578125,2.327810287475586,1.8216300010681152,-1.2334117889404297
1772883532227851300,8.412851318359374,1.0385761260986328,2.6788101196289062,-0.6989389061927795
1772883532244453000,8.429453125,1.7045202255249023,2.864330291748047,0.13935884833335876
1772883532261058300,8.446058349609375,3.3727293014526367,2.4764299392700195,0.6472303867340088
1772883532277663700,8.462663818359376,4.564659118652344,2.093350410461426,1.0650482177734375
1772883532294269200,8.479269287109375,4.379238128662109,1.8271145820617676,1.2044782638549805
1772883532310871300,8.495871337890625,2.739956855773926,1.4234094619750977,1.028508186340332
1772883532327466500,8.512466552734375,0.9631233215332031,0.8419265747070312,0.38636264204978943
1772883532344072000,8.529072021484374,-0.4486370086669922,0.33650922775268555,-0.2265825867652893
1772883532360676600,8.545676513671875,-1.3346166610717773,-0.15032577514648438,-0.17157328128814697
1772883532377272000,8.56227197265625,-1.5475263595581055,-0.796811580657959,0.3555639982223511
1772883532393887700,8.5788876953125,-1.5369815826416016,-1.5735602378845215,0.6652191877365112
1772883532410492000,8.595491943359375,-1.62066650390625,-2.191939115524292,0.7304912209510803
1772883532427100000,8.612099853515625,-2.3265695571899414,-2.411414384841919,1.0114309787750244
1772883532443704000,8.6287041015625,-3.431839942932129,-2.4086523056030273,1.1194958686828613
1772883532460312600,8.6453125,-4.392587184906006,-2.652785301208496,0.8021502494812012
1772883532476934000,8.661933837890626,-4.656392574310303,-3.0009260177612305,0.31872040033340454
1772883532493533200,8.678533203125,-4.854735374450684,-3.374450922012329,-0.07866054773330688
1772883532510132700,8.6951328125,-5.539849281311035,-3.6366453170776367,0.09842216968536377
1772883532526741200,8.7117412109375,-6.516015529632568,-3.477179527282715,0.5049858093261719
1772883532543350500,8.7283505859375,-7.098432540893555,-3.2708091735839844,0.6489884853363037
1772883532559965700,8.744965576171875,-6.693167686462402,-3.437168836593628,0.5031673312187195
1772883532576564500,8.761564453125,-5.512402534484863,-3.699500560760498,0.1774592101573944
1772883532593166000,8.778166015625,-4.6280131340026855,-3.844597816467285,-0.21058392524719238
1772883532609768000,8.794767822265625,-4.459688186645508,-3.72554349899292,-0.5498937368392944
1772883532626363600,8.81136376953125,-3.9567127227783203,-2.6502277851104736,-1.788629174232483
1772883532642982700,8.827982666015625,-4.661831378936768,0.11323976516723633,-3.593271255493164
1772883532659571000,8.844571044921874,-6.731355667114258,0.002410411834716797,-1.0166435241699219
1772883532676179000,8.861178955078126,-2.415764808654785,1.635749340057373,-0.2753232717514038
1772883532692798200,8.877798095703126,2.7733945846557617,0.19122028350830078,0.06776902079582214
1772883532709383400,8.894383544921874,5.874423980712891,-1.4258108139038086,-0.14211231470108032
1772883532725996500,8.91099658203125,5.897609710693359,-0.7569789886474609,-0.9757997989654541
1772883532742615000,8.927614990234375,5.338300704956055,0.2451786994934082,-0.3895115852355957
1772883532759219500,8.944219482421875,6.268349647521973,0.7790899276733398,-0.09130147099494934
1772883532775824000,8.960823974609376,7.362093925476074,1.396620750427246,-0.27820247411727905
1772883532792428300,8.97742822265625,8.521086692810059,1.6703147888183594,0.25386857986450195
1772883532809021000,8.99402099609375,8.41666030883789,1.7055978775024414,0.31398805975914
1772883532825625600,9.01062548828125,6.821145057678223,1.6751575469970703,-0.7083551287651062
1772883532842229800,9.027229736328126,4.59827995300293,1.909317970275879,-1.7718709707260132
1772883532858841600,9.043841552734374,3.1843738555908203,2.163367748260498,-1.916158676147461
1772883532875428000,9.060427978515625,3.0744104385375977,2.315484046936035,-0.9495207071304321
1772883532892043800,9.077043701171876,3.5940160751342773,2.387507915496826,-0.31727245450019836
1772883532908654600,9.093654541015624,3.7711429595947266,2.0718111991882324,-0.08314637094736099
1772883532925259800,9.110259765625,3.311582565307617,1.7382793426513672,0.049645181745290756
1772883532941865700,9.12686572265625,2.0828475952148438,1.5769853591918945,0.47536107897758484
1772883532958473700,9.1434736328125,0.9307022094726562,1.4813880920410156,0.40885958075523376
1772883532975087000,9.160087158203124,0.42881011962890625,1.167694091796875,0.019303828477859497
1772883532991694800,9.17669482421875,0.32376956939697266,0.8568458557128906,-0.029280424118041992
1772883533008296700,9.193296630859376,0.2456035614013672,0.6670818328857422,0.43506917357444763
1772883533024909800,9.209909912109374,0.28591060638427734,0.3907947540283203,0.8692165613174438
1772883533041511200,9.22651123046875,0.6365461349487305,-0.3040947914123535,0.9318669438362122
1772883533058134800,9.243134765625,0.47873783111572266,-1.214473009109497,0.4925708770751953
1772883533074697700,9.25969775390625,-0.42949771881103516,-1.920952320098877,-0.19872242212295532
