time,seconds_elapsed,z,y,x
1772883523966630700,0.151630615234375,0.01878410577774048,-0.389426589012146,0.11759155988693237
1772883523983250200,0.168250244140625,0.01771509274840355,-0.38026362657546997,0.03527746722102165
1772883523999855400,0.18485546875,0.025045474991202354,-0.27580565214157104,0.025656340643763542
1772883524016454400,0.201454345703125,0.06520986557006836,-0.17928895354270935,0.025961773470044136
1772883524033067500,0.218067626953125,0.12965615093708038,-0.15577064454555511,0.014202617108821869
1772883524049672000,0.234671875,0.1134682223200798,-0.096211276948452,0.04596760869026184
1772883524066290400,0.25129052734375,-0.020463986322283745,-0.10461067408323288,0.09896016865968704
1772883524082890500,0.267890380859375,-0.19746218621730804,-0.04917465150356293,0.08032877743244171
1772883524099502300,0.28450244140625,-0.31352660059928894,0.02825251780450344,-0.12034045159816742
1772883524116100400,0.301100341796875,-0.33567044138908386,-0.05314527451992035,-0.3741549551486969
1772883524132716500,0.317716552734375,-0.280539870262146,-0.1342376321554184,-0.45692721009254456
1772883524149283300,0.334283447265625,-0.1918116807937622,-0.18219055235385895,-0.39354994893074036
1772883524165910000,0.350909912109375,-0.06933320313692093,-0.1736384481191635,-0.2324342280626297
1772883524182513700,0.367513671875,0.055741455405950546,-0.13607023656368256,-0.04566217586398125
1772883524199118600,0.38411865234375,0.10476338863372803,-0.13744467496871948,0.08628471940755844
1772883524215725300,0.400725341796875,0.07819075137376785,-0.0809396430850029,0.17470745742321014
1772883524232329200,0.4173291015625,0.036041051149368286,0.11560624837875366,0.26771169900894165
1772883524248945200,0.433945068359375,0.04108068719506264,0.45753806829452515,0.42439863085746765
1772883524265552400,0.450552490234375,0.11667526513338089,0.7376197576522827,0.5890268087387085
1772883524282155500,0.467155517578125,0.20097467303276062,0.7646505832672119,0.7008151412010193
1772883524298764000,0.483763916015625,0.2767219543457031,0.6385068893432617,0.764955997467041
1772883524315368000,0.500367919921875,0.3101668357849121,0.3692680299282074,0.7415903806686401
1772883524331966200,0.51696630859375,0.28069257736206055,-0.0705549344420433,0.6061310172080994
1772883524348579800,0.533579833984375,0.22098049521446228,-0.4622722864151001,0.42577308416366577
1772883524365184500,0.5501845703125,0.1007927656173706,-0.5839871764183044,0.2970332205295563
1772883524381800000,0.566800048828125,-0.12034045159816742,-0.40653082728385925,0.35323283076286316
1772883524398384000,0.583384033203125,-0.41340306401252747,-0.26221391558647156,0.36972618103027344
1772883524415016400,0.600016357421875,-0.5844452977180481,-0.36132678389549255,0.12110403180122375
1772883524431613200,0.61661328125,-0.46853363513946533,-0.5290092825889587,0.04108068719506264
1772883524448212200,0.633212158203125,-0.17776179313659668,-0.4853324294090271,0.3130684494972229
1772883524464798200,0.649798095703125,0.058795779943466187,-0.32589662075042725,0.5435173511505127
1772883524481414000,0.666413818359375,0.04352414980530739,-0.12599095702171326,0.42210787534713745
1772883524498014500,0.683014404296875,-0.096211276948452,0.09666942805051804,0.11911872029304504
1772883524514626300,0.699626220703125,-0.13958270847797394,0.399200439453125,-0.09040805697441101
1772883524531230500,0.71623046875,-0.04612032696604729,0.5517640113830566,-0.40515637397766113
1772883524547832600,0.73283251953125,0.16004669666290283,0.6101016402244568,-0.90728759765625
1772883524564455400,0.749455322265625,0.365755558013916,0.5085453391075134,-1.344361662864685
1772883524581052700,0.766052734375,0.47998735308647156,0.2028072625398636,-1.5341880321502686
1772883524597664000,0.7826640625,0.5054910182952881,-0.251218318939209,-1.5001323223114014
1772883524614268200,0.79926806640625,0.43447789549827576,-0.6876815557479858,-1.313360333442688
1772883524630880500,0.815880615234375,0.2356412708759308,-0.8822421431541443,-1.0464121103286743
1772883524647475200,0.83247509765625,0.005192354787141085,-0.8210029006004333,-0.7988590002059937
1772883524664083700,0.849083740234375,-0.1186605766415596,-0.5021312236785889,-0.5992587804794312
1772883524680691700,0.865691650390625,-0.11728613078594208,-0.07666359096765518,-0.41233405470848083
1772883524697290200,0.882290283203125,-0.09040805697441101,0.2165517359972,-0.21242839097976685
1772883524713896700,0.898896728515625,-0.13973543047904968,0.31612277030944824,-0.06688974797725677
1772883524730511000,0.915510986328125,-0.2791654169559479,0.23808473348617554,0.08261952549219131
1772883524747109600,0.932109619140625,-0.3471241891384125,0.14996741712093353,0.2767219543457031
1772883524763718000,0.9487177734375,-0.25824329257011414,0.13439035415649414,0.4680754840373993
1772883524780319700,0.96531982421875,-0.07620543986558914,0.10812314599752426,0.5723807215690613
1772883524796926500,0.981926513671875,0.062460970133543015,0.09483683109283447,0.6166684627532959
1772883524813534000,0.998533935546875,0.08811730891466141,0.020922135561704636,0.612850546836853
1772883524830140700,1.015140625,-0.001527163083665073,-0.0429132841527462,0.6582072973251343
1772883524846742300,1.0317421875,-0.12858712673187256,0.03451388701796532,0.7183775305747986
1772883524863349800,1.048349853515625,-0.21930062770843506,0.20983220636844635,0.7452555894851685
1772883524879937000,1.06493701171875,-0.28298333287239075,0.43386703729629517,0.7220427393913269
1772883524896562000,1.08156201171875,-0.25305092334747314,0.7331910133361816,0.7165449261665344
1772883524913159000,1.098158935546875,-0.2076941877603531,0.8672759532928467,0.7521278262138367
1772883524929779000,1.114779052734375,-0.12003502249717712,0.9100365042686462,0.845132052898407
1772883524946357500,1.131357421875,0.00809396430850029,0.6937901973724365,0.8735373020172119
1772883524962984000,1.14798388671875,0.0555887371301651,-0.11209376901388168,0.6473644375801086
1772883524979574500,1.164574462890625,0.11881329119205475,-1.1647672653198242,0.475253164768219
1772883524996176600,1.1811767578125,-0.00733038317412138,-0.9269880056381226,0.5697845816612244
1772883525012788000,1.1977880859375,-0.13973543047904968,0.4108068645000458,0.48640143871307373
1772883525029389600,1.2143896484375,-0.33139440417289734,0.8249735236167908,-0.09544769674539566
1772883525045992200,1.2309921875,-0.566730260848999,0.7478517889976501,-0.4999932050704956
1772883525062622200,1.247622314453125,-0.384845107793808,0.5209153294563293,-0.5114469528198242
1772883525079214800,1.26421484375,-0.08796459436416626,0.39813143014907837,-0.3914119005203247
1772883525095824400,1.280824462890625,-0.0685696229338646,0.33169981837272644,-0.4579962193965912
1772883525112431600,1.297431640625,-0.14233160018920898,0.5725334286689758,-0.19944749772548676
1772883525129039400,1.314039306640625,-0.08720101416110992,0.8894197940826416,0.42302417755126953
1772883525145639400,1.330639404296875,-0.0064140851609408855,0.7594582438468933,0.7762570381164551
1772883525162247400,1.347247314453125,0.04917465150356293,0.18997909128665924,0.6771441102027893
1772883525178851800,1.363851806640625,0.08811730891466141,-0.5264131426811218,0.2961169183254242
1772883525195456500,1.38045654296875,0.13515393435955048,-1.0144944190979004,-0.08659014850854874
1772883525212065300,1.397065185546875,0.17058411240577698,-1.0855075120925903,-0.3173444867134094
1772883525228665600,1.41366552734375,0.1638645976781845,-0.589790403842926,-0.3539963960647583
1772883525245272000,1.43027197265625,0.10445795953273773,-0.0861319974064827,-0.35903605818748474
1772883525261879600,1.446879638671875,0.04138612002134323,-0.08292495459318161,-0.3908010423183441
1772883525278485500,1.463485595703125,0.00427605677396059,-0.5612324476242065,-0.3553708493709564
1772883525295089700,1.480089599609375,0.02932153269648552,-1.0213667154312134,-0.23747386038303375
1772883525311695600,1.496695556640625,0.09697485715150833,-1.0965031385421753,-0.14049901068210602
1772883525328300800,1.51330078125,0.1437060534954071,-0.7777841687202454,-0.08994990587234497
1772883525344904700,1.52990478515625,0.15683965384960175,-0.22296582162380219,-0.032070424407720566
1772883525361511200,1.54651123046875,0.12247848510742188,0.20861047506332397,0.08277224004268646
1772883525378115600,1.563115478515625,0.028557950630784035,0.318566232919693,0.3003929853439331
1772883525394727400,1.5797275390625,-0.08949175477027893,0.11957687139511108,0.612850546836853
1772883525411329300,1.596329345703125,-0.16768251359462738,-0.078343465924263,0.9137017130851746
1772883525427936300,1.612936279296875,-0.11560624837875366,-0.036041051149368286,1.012050986289978
1772883525444521200,1.629521240234375,0.01924225501716137,0.015882495790719986,0.8349000811576843
1772883525457412600,1.64241259765625,0.11102475970983505,0.03329215571284294,0.5590944290161133
1772883525473591800,1.658591796875,0.12018773704767227,0.02626720629632473,0.35521814227104187
1772883525490190000,1.675190185546875,0.03695734590291977,0.059406645596027374,0.3156646192073822
1772883525506796300,1.69179638671875,-0.05757404863834381,0.18845193088054657,0.4893030524253845
1772883525523403500,1.708403564453125,-0.07941248267889023,0.33108896017074585,0.6618725061416626
1772883525540008700,1.7250087890625,-0.059864792972803116,0.31581732630729675,0.6218608021736145
1772883525556613000,1.741613037109375,-0.18219055235385895,0.4254676401615143,0.5435173511505127
1772883525573236700,1.75823681640625,-0.16600263118743896,0.8174903988838196,0.3396410644054413
1772883525589836800,1.7748369140625,-0.13866640627384186,1.4395039081573486,-0.04612032696604729
1772883525606441000,1.79144091796875,0.07360926270484924,1.5940529108047485,-0.5633704662322998
1772883525623032600,1.808032470703125,0.20616702735424042,1.2479976415634155,-1.9158260822296143
1772883525639655400,1.824655517578125,0.3718642294406891,1.4795156717300415,-3.073415756225586
1772883525656257800,1.8412578125,0.3263547718524933,1.8150333166122437,-3.9403862953186035
1772883525672865000,1.857864990234375,0.33246341347694397,2.063502788543701,-4.315457344055176
1772883525689469700,1.8744697265625,0.3404046595096588,2.107943296432495,-4.050036430358887
1772883525706060500,1.891060546875,0.25442537665367126,1.4960089921951294,-3.54225492477417
1772883525722680000,1.90768017578125,0.2376265823841095,1.0610729455947876,-3.1305315494537354
1772883525739285500,1.924285400390625,0.5074763298034668,0.7554876208305359,-2.7033841609954834
1772883525755890400,1.940890380859375,0.9364564418792725,0.3423899710178375,-2.1365013122558594
1772883525772499200,1.957499267578125,1.144303321838379,-0.1586722433567047,-1.3194689750671387
1772883525789097500,1.974097412109375,0.6991352438926697,-0.7336491346359253,-0.41630467772483826
1772883525805710600,1.990710693359375,0.156686931848526,-1.3274102210998535,0.02474004216492176
1772883525822277400,2.00727734375,-0.2399173229932785,-1.6468926668167114,-0.054825156927108765
1772883525838907100,2.0239072265625,-0.5230533480644226,-1.6270395517349243,-0.3323107063770294
1772883525855510500,2.040510498046875,-0.6369797587394714,-1.2544118165969849,-0.4714352488517761
1772883525872116000,2.057115966796875,-0.5447390675544739,-0.7524332404136658,-0.4447098970413208
1772883525888722700,2.07372265625,-0.2730567753314972,-0.3995058834552765,-0.01817324012517929
1772883525905327400,2.090327392578125,-0.12538009881973267,-0.5433646440505981,0.43615779280662537
1772883525921930800,2.1069306640625,-0.15821409225463867,-0.8620835542678833,0.7742717266082764
1772883525938536400,2.123536376953125,-0.2483167201280594,-1.2620476484298706,1.0283915996551514
1772883525955142400,2.140142333984375,-0.32940909266471863,-1.394299864768982,1.3014483451843262
1772883525971750000,2.15675,-0.4053090810775757,-1.2867876291275024,1.4941763877868652
1772883525988355000,2.17335498046875,-0.4184426963329315,-1.0670288801193237,1.5128077268600464
1772883526004947200,2.189947265625,-0.2799290120601654,-0.6892086863517761,1.4187345504760742
1772883526021565000,2.20656494140625,-0.04749477282166481,-0.28038713335990906,1.294118046760559
1772883526038176000,2.223176025390625,0.14049901068210602,0.046731192618608475,1.2055425643920898
1772883526054794000,2.2397939453125,0.15714508295059204,0.18845193088054657,1.1239920854568481
1772883526071394600,2.25639453125,0.08216137439012527,0.13271047174930573,0.9957103729248047
1772883526088014000,2.27301416015625,0.0403171069920063,-0.04596760869026184,0.9437867999076843
1772883526104607500,2.289607421875,0.06979135423898697,-0.054367005825042725,1.0835222005844116
1772883526121195300,2.3061953125,0.16859880089759827,0.04459316283464432,1.3055717945098877
1772883526137814500,2.322814453125,0.18539759516716003,0.04138612002134323,1.4530956745147705
1772883526154407200,2.3394072265625,0.018478672951459885,-0.05451972410082817,1.4094188213348389
1772883526171039000,2.3560390625,-0.337044894695282,-0.13927727937698364,1.1786644458770752
1772883526187634200,2.37263427734375,-0.7128797173500061,-0.1385136991739273,0.9436340928077698
1772883526204222000,2.389221923828125,-0.8797986507415771,0.004886921960860491,0.5479460954666138
1772883526220849400,2.405849365234375,-0.5803219676017761,0.4121813178062439,0.07513642311096191
1772883526237444600,2.422444580078125,-0.1342376321554184,1.363909363746643,-0.1459967941045761
1772883526254058500,2.43905859375,-0.17837265133857727,2.1230621337890625,-0.5313000679016113
1772883526270660400,2.455660400390625,-0.6969972252845764,1.8118263483047485,-0.6850853562355042
1772883526287263000,2.472262939453125,-1.027475357055664,1.0152580738067627,-0.3309362530708313
1772883526303873800,2.488873779296875,-1.056796908378601,-0.02932153269648552,-0.03084869496524334
1772883526320475100,2.50547509765625,-0.8863654732704163,-0.3677408695220947,-0.052381694316864014
1772883526337076000,2.522075927734375,-0.4086688458919525,-0.10583240538835526,-0.12339477986097336
1772883526353675300,2.53867529296875,-0.020922135561704636,0.0887281745672226,0.02229658141732216
1772883526370292700,2.555292724609375,0.13500121235847473,0.3985895812511444,0.2295326143503189
1772883526386897000,2.57189697265625,0.04612032696604729,0.5815436840057373,0.00427605677396059
1772883526403520500,2.5885205078125,-0.02428189292550087,0.6395758986473083,-0.36331209540367126
1772883526420092400,2.605092529296875,0.10323622822761536,0.6736316680908203,-0.45326200127601624
1772883526436689400,2.621689453125,0.33337971568107605,0.4821254014968872,-0.30741792917251587
1772883526453306400,2.638306396484375,0.49205195903778076,0.3139847218990326,-0.06872233748435974
1772883526469917400,2.65491748046875,0.5818491578102112,-0.04932736977934837,-0.04566217586398125
1772883526486506000,2.671506103515625,0.6171266436576843,-0.44654250144958496,-0.2249511331319809
1772883526503125500,2.68812548828125,0.5774203538894653,-0.7764097452163696,-0.5212207436561584
1772883526519722500,2.704722412109375,0.4407392740249634,-1.0137308835983276,-0.837496280670166
1772883526536332300,2.721332275390625,0.28435778617858887,-1.1722503900527954,-1.024420976638794
1772883526552948000,2.737947998046875,0.16951510310173035,-1.158811330795288,-0.9752463698387146
1772883526569546000,2.7545458984375,0.14508049190044403,-1.023046612739563,-0.8083274364471436
1772883526586164500,2.77116455078125,0.18280142545700073,-0.769079327583313,-0.6334672570228577
1772883526602770700,2.787770751953125,0.2070833146572113,-0.5079344511032104,-0.5067127346992493
1772883526619372000,2.8043720703125,0.2301434874534607,-0.24678955972194672,-0.4011857509613037
1772883526635964200,2.820964111328125,0.2565633952617645,-0.01038470957428217,-0.30314189195632935
1772883526652585200,2.837585205078125,0.24602597951889038,0.1618792861700058,-0.22418753802776337
1772883526669189400,2.854189453125,0.2344195395708084,0.23839016258716583,-0.13271047174930573
1772883526685779500,2.870779541015625,0.24694228172302246,0.20799961686134338,0.04841107130050659
1772883526702387000,2.887386962890625,0.26313021779060364,0.2684752643108368,0.3446807265281677
1772883526719000800,2.904000732421875,0.26542094349861145,0.36361753940582275,0.6427829265594482
1772883526735597600,2.92059765625,0.22143864631652832,0.3381139039993286,0.8379544019699097
1772883526752204300,2.937204345703125,0.11331550031900406,0.21288654208183289,0.9399688839912415
1772883526768808700,2.95380859375,0.03237585723400116,0.05513058975338936,0.9731083512306213
1772883526785432000,2.97043212890625,0.014202617108821869,0.060475658625364304,0.9385944604873657
1772883526802039800,2.987039794921875,0.07559457421302795,0.22540926933288574,0.9288206100463867
1772883526818610200,3.003610107421875,0.14355333149433136,0.38988474011421204,1.0415252447128296
1772883526835243500,3.020243408203125,0.16951510310173035,0.3738495409488678,1.1400272846221924
1772883526851834400,3.03683447265625,0.3680463135242462,-0.022602014243602753,1.0992519855499268
1772883526868450300,3.0534501953125,0.4570799171924591,-0.6424775123596191,0.7787004709243774
1772883526885065700,3.070065673828125,-0.04734205827116966,-1.108567714691162,-0.004428773187100887
1772883526901645000,3.08664501953125,-0.41890084743499756,-0.8972083330154419,-0.7043276429176331
1772883526918271700,3.103271728515625,-0.46181413531303406,-0.5395467281341553,-0.8365799784660339
1772883526934860300,3.1198603515625,-0.36422839760780334,-0.2093740701675415,-0.5106833577156067
1772883526951469300,3.13646923828125,-0.11056660860776901,0.4622722864151001,0.02626720629632473
1772883526968073700,3.15307373046875,-0.02733621932566166,0.6688974499702454,0.2675589919090271
1772883526984680200,3.16968017578125,-0.24358251690864563,0.18325957655906677,0.18997909128665924
1772883527001287700,3.18628759765625,-0.4983133375644684,-0.30543261766433716,0.12538009881973267
1772883527017892600,3.202892578125,-0.6762278079986572,-0.2845104932785034,0.06627888232469559
1772883527034500900,3.2195009765625,-0.50335294008255,0.26710084080696106,0.006872233934700489
1772883527051115500,3.236115478515625,-0.10613783448934555,0.6690501570701599,0.046731192618608475
1772883527067721000,3.252720947265625,0.18096883594989777,0.6230825781822205,0.12751811742782593
1772883527084326400,3.269326416015625,0.25244006514549255,0.29917123913764954,0.1333213448524475
1772883527100932900,3.285932861328125,0.17150041460990906,-0.0659734457731247,0.02687807008624077
1772883527117530600,3.302530517578125,0.04856378585100174,-0.5079344511032104,-0.11743884533643723
1772883527134148600,3.319148681640625,-0.04902193695306778,-0.9958630800247192,-0.2987131178379059
1772883527150748000,3.335747802734375,-0.09147707372903824,-1.4010194540023804,-0.5490151643753052
1772883527167355100,3.352355224609375,-0.09972374886274338,-1.5320500135421753,-0.7058547735214233
1772883527183958500,3.36895849609375,-0.08628471940755844,-1.303891897201538,-0.669355571269989
1772883527200564700,3.385564697265625,0.016798794269561768,-0.865290641784668,-0.5268712639808655
1772883527217170000,3.402169921875,0.16294831037521362,-0.3625485301017761,-0.413555771112442
1772883527233799000,3.418798828125,0.2376265823841095,-0.056352317333221436,-0.46639561653137207
1772883527250386400,3.435386474609375,0.2588541507720947,0.07590000331401825,-0.5791002511978149
1772883527266986200,3.451986328125,0.2822197377681732,0.2718350291252136,-0.5242751240730286
1772883527283591200,3.468591064453125,0.32757648825645447,0.5143485069274902,-0.22892175614833832
1772883527300198100,3.4851982421875,0.32849279046058655,0.6229298114776611,0.19837848842144012
1772883527316802300,3.50180224609375,0.23411411046981812,0.4674646258354187,0.5436700582504272
1772883527333404400,3.518404296875,0.03634648025035858,0.14614951610565186,0.7365507483482361
1772883527349995500,3.53499560546875,-0.24495697021484375,-0.17318029701709747,0.8510879874229431
1772883527366623700,3.551623779296875,-0.46792277693748474,-0.21609358489513397,0.9610437750816345
1772883527383223800,3.568223876953125,-0.5534439086914062,-0.006108652334660292,1.0290025472640991
1772883527399829500,3.58482958984375,-0.48166725039482117,0.1736384481191635,1.0768027305603027
1772883527416431600,3.601431640625,-0.34147366881370544,0.29565876722335815,1.1311696767807007
1772883527433027300,3.61802734375,-0.30833423137664795,0.33918291330337524,1.1859948635101318
1772883527449631700,3.6346318359375,-0.32940909266471863,0.21349740028381348,1.132238745689392
1772883527466236200,3.651236083984375,-0.12095131725072861,0.4155410826206207,1.027475357055664
1772883527482846000,3.667845947265625,0.2968805134296417,0.2591595947742462,0.7628179788589478
1772883527499449300,3.684449462890625,0.006872233934700489,-1.1155925989151,-0.28435778617858887
1772883527516053800,3.7010537109375,-0.5644394755363464,-1.3570371866226196,-0.8090910315513611
1772883527532675800,3.71767578125,-0.6094908118247986,-1.1218540668487549,-0.8657487630844116
1772883527549292500,3.73429248046875,-0.1768454909324646,-0.33307427167892456,-0.451582133769989
1772883527565885000,3.750885009765625,0.31001409888267517,0.8478809595108032,0.20204368233680725
1772883527582488800,3.76748876953125,0.5656611919403076,1.14873206615448,0.5626068711280823
1772883527599094300,3.78409423828125,0.4915938079357147,0.5670356750488281,0.47219884395599365
1772883527615699500,3.800699462890625,0.13561208546161652,-0.06902777403593063,0.004734205547720194
1772883527632306200,3.81730615234375,-0.21639901399612427,-0.4944954216480255,-0.5135849714279175
1772883527648933000,3.83393310546875,-0.24144448339939117,-0.39645153284072876,-0.6105598211288452
1772883527665516000,3.85051611328125,0.13240504264831543,0.046731192618608475,-0.2788599729537964
1772883527682121200,3.867121337890625,0.5364924073219299,0.4222606122493744,0.06169738993048668
1772883527698728200,3.883728271484375,0.6611089110374451,0.47708576917648315,0.10186178237199783
1772883527715332600,3.90033251953125,0.5088507533073425,0.1875356286764145,0.0022907445672899485
1772883527731937300,3.916937255859375,0.22449298202991486,-0.2799290120601654,-0.08643743395805359
1772883527748527900,3.93352783203125,0.03039054572582245,-0.5079344511032104,-0.15103642642498016
1772883527765149400,3.9501494140625,-0.1111774742603302,-0.3686571717262268,-0.2906191349029541
1772883527781754600,3.966754638671875,-0.20112738013267517,-0.128434419631958,-0.4815145432949066
1772883527798359300,3.983359375,-0.1976149082183838,-0.1215621829032898,-0.6146831512451172
1772883527814964500,3.999964599609375,-0.16371189057826996,-0.3608686327934265,-0.6646214127540588
1772883527831571000,4.016571044921875,-0.23915374279022217,-0.48838675022125244,-0.6539312601089478
1772883527848177000,4.033177001953125,-0.3790418803691864,-0.3263547718524933,-0.5815436840057373
1772883527864781000,4.049781005859375,-0.5035057067871094,-0.10766500234603882,-0.5244278311729431
1772883527881386500,4.066386474609375,-0.5804746747016907,0.038179077208042145,-0.47051894664764404
1772883527897993000,4.082992919921875,-0.569631814956665,0.2278527319431305,-0.32100969552993774
1772883527914580000,4.099580078125,-0.5259549617767334,0.3459024429321289,-0.10522153973579407
1772883527931188700,4.116188720703125,-0.522595226764679,0.24465152621269226,0.05146539583802223
1772883527947794400,4.13279443359375,-0.5998696684837341,0.07070764899253845,0.1690569519996643
1772883527964400600,4.149400634765625,-0.6708827614784241,0.02626720629632473,0.3026837408542633
1772883527981005300,4.16600537109375,-0.6637051105499268,0.16203200817108154,0.461355984210968
1772883527997610800,4.18261083984375,-0.528245747089386,0.3703370690345764,0.5871942043304443
1772883528014219300,4.19921923828125,-0.3497203588485718,0.46410486102104187,0.6579018831253052
1772883528030836000,4.2158359375,-0.2554943859577179,0.355981707572937,0.7234171628952026
1772883528047424300,4.23242431640625,-0.251218318939209,0.11713340878486633,0.8506298661231995
1772883528064046000,4.249046142578125,-0.31612277030944824,-0.03649919852614403,1.0598511695861816
1772883528080651800,4.26565185546875,-0.3790418803691864,0.006719517521560192,1.2247848510742188
1772883528097258200,4.28225830078125,-0.3488040566444397,0.23518311977386475,1.2345587015151978
1772883528113862400,4.2988623046875,-0.13927727937698364,0.05925392732024193,1.1742357015609741
1772883528130467300,4.31546728515625,-0.36880987882614136,-1.8512271642684937,0.22418753802776337
1772883528147056000,4.33205615234375,-0.6099489331245422,-1.9886717796325684,-0.5705481171607971
1772883528163679500,4.348679443359375,-0.5580254197120667,-0.988990843296051,-0.7420485615730286
1772883528180284000,4.365283935546875,-0.41722095012664795,-0.29535335302352905,-0.4677700698375702
1772883528196889300,4.381889404296875,-0.2632829248905182,0.11972958594560623,0.07681630551815033
1772883528213494800,4.398494873046875,-0.1618792861700058,0.04352414980530739,0.3729332387447357
1772883528230101000,4.41510107421875,-0.19288070499897003,-0.4812090992927551,0.2542726695537567
1772883528246697000,4.431697021484375,-0.28435778617858887,-0.8373435139656067,0.03878994286060333
1772883528263310800,4.448310791015625,-0.294895201921463,-0.6328563690185547,-0.1540907621383667
1772883528279916800,4.464916748046875,-0.11713340878486633,0.20570887625217438,-0.3309362530708313
1772883528296523000,4.48152294921875,0.20143280923366547,0.9289733171463013,-0.4349360466003418
1772883528313127000,4.498126953125,0.4726569950580597,1.0994046926498413,-0.4437935948371887
1772883528329732600,4.514732666015625,0.5716171264648438,0.5629123449325562,-0.4833471179008484
1772883528346304000,4.531303955078125,0.49144110083580017,-0.22250767052173615,-0.5342016816139221
1772883528362951200,4.547951171875,0.3341432809829712,-0.7849618196487427,-0.6551529765129089
1772883528379542800,4.564542724609375,0.21151208877563477,-0.7993171811103821,-0.7689266204833984
1772883528396134400,4.581134521484375,0.19165897369384766,-0.4931209683418274,-0.892779529094696
1772883528412746200,4.597746337890625,0.2594650089740753,-0.09208793938159943,-1.0409144163131714
1772883528429352400,4.6143525390625,0.3292563557624817,0.06887505948543549,-1.183398723602295
1772883528445956600,4.63095654296875,0.36789360642433167,0.003512475173920393,-1.1725558042526245
1772883528462562000,4.64756201171875,0.36529740691185,-0.12034045159816742,-1.0201449394226074
1772883528479167700,4.664167724609375,0.2638937830924988,-0.12889257073402405,-0.822682797908783
1772883528495774200,4.680774169921875,0.1293507218360901,-0.11041389405727386,-0.6259841322898865
1772883528512395500,4.6973955078125,0.016951510682702065,-0.006719517521560192,-0.41523563861846924
1772883528528995600,4.71399560546875,-0.04612032696604729,0.1258382350206375,-0.21991148591041565
1772883528545589800,4.73058984375,-0.07910704612731934,0.17256943881511688,-0.13087788224220276
1772883528562209800,4.747209716796875,-0.06185010448098183,0.12690725922584534,-0.12171489745378494
1772883528578813700,4.763813720703125,0.013591751456260681,0.17150041460990906,-0.03634648025035858
1772883528595419400,4.78041943359375,0.06459899991750717,0.3098613917827606,0.2050980031490326
1772883528612020500,4.7970205078125,0.014966198243200779,0.33078351616859436,0.48090365529060364
1772883528628635000,4.813634765625,-0.09193521738052368,0.08307767659425735,0.5703954100608826
1772883528645234700,4.830234619140625,-0.14294247329235077,-0.15592335164546967,0.5448917746543884
1772883528661841000,4.8468408203125,-0.11239920556545258,-0.0029016099870204926,0.6345362663269043
1772883528678446600,4.863446533203125,-0.030237829312682152,0.32681289315223694,0.8193230032920837
1772883528695052800,4.880052734375,0.07483099400997162,0.48288896679878235,0.9697485566139221
1772883528711657200,4.8966572265625,0.2194533348083496,0.4447098970413208,1.069166898727417
1772883528728262400,4.913262451171875,0.266642689704895,0.23777928948402405,1.1004737615585327
1772883528744852000,4.92985205078125,0.23335053026676178,0.0064140851609408855,1.0545061826705933
1772883528761474000,4.94647412109375,0.43676865100860596,0.45036038756370544,1.1311696767807007
1772883528778079000,4.963078857421875,0.8539896011352539,0.5968153476715088,1.21027672290802
1772883528794684400,4.979684326171875,0.6542366743087769,-0.6914994716644287,0.29306259751319885
1772883528811289600,4.99628955078125,0.21807889640331268,-0.0861319974064827,-0.3045163154602051
1772883528827895600,5.0128955078125,-0.18066339194774628,0.7893906235694885,-0.7089090943336487
1772883528844471300,5.02947119140625,-0.39385536313056946,1.0140362977981567,-0.8110763430595398
1772883528861105700,5.046105712890625,-0.3452915847301483,0.6035348773002625,-0.7160868048667908
1772883528877711600,5.062711669921875,0.07528914511203766,0.06414084881544113,-0.5047274231910706
1772883528894300200,5.079300048828125,0.48747047781944275,-0.37690386176109314,-0.3205515444278717
1772883528910908400,5.095908447265625,0.5097670555114746,-0.5154175758361816,-0.3095559775829315
1772883528927513600,5.112513671875,0.2993239760398865,-0.1293507218360901,-0.2782491147518158
1772883528944117800,5.12911767578125,0.12461651116609573,0.20616702735424042,-0.2819143235683441
1772883528960725500,5.1457255859375,0.11927144229412079,0.3344487249851227,-0.41890084743499756
1772883528977330200,5.162330078125,0.2119702398777008,0.42928555607795715,-0.6487388610839844
1772883528993935000,5.17893505859375,0.3321579694747925,0.11026117950677872,-0.9053022861480713
1772883529010557700,5.1955576171875,0.35414913296699524,-0.3781255781650543,-0.8469646573066711
1772883529027160600,5.21216064453125,0.3988949954509735,-0.7823656797409058,-0.5279402732849121
1772883529043752000,5.228751953125,0.4535674452781677,-0.9472993016242981,-0.27809640765190125
1772883529060370700,5.24537060546875,0.37537670135498047,-0.945772111415863,-0.2710714638233185
1772883529076976000,5.26197607421875,0.21334469318389893,-0.9298896193504333,-0.3052799105644226
1772883529093581300,5.278581298828125,0.11545353382825851,-0.915534257888794,-0.2269364446401596
1772883529110188000,5.29518798828125,0.1189660057425499,-1.0125091075897217,-0.10567969083786011
1772883529126792000,5.3117919921875,0.1944078654050827,-1.2055425643920898,0.05009094998240471
1772883529143381500,5.328381591796875,0.3323107063770294,-1.1803443431854248,0.35155296325683594
1772883529160003800,5.34500390625,0.4444044530391693,-0.755182147026062,0.6766859889030457
1772883529176608300,5.361608154296875,0.4889976382255554,-0.24923302233219147,0.8472700715065002
1772883529193209600,5.378209716796875,0.4479169547557831,0.022907447069883347,0.8211556077003479
1772883529209823500,5.394823486328125,0.37751471996307373,0.03222314268350601,0.7498371005058289
1772883529226425900,5.41142578125,0.27641651034355164,-0.1235474944114685,0.7590000629425049
1772883529243007200,5.42800732421875,0.1592831164598465,-0.31780263781547546,0.7226535677909851
1772883529259635500,5.444635498046875,0.046273041516542435,-0.3787364661693573,0.5511531829833984
1772883529276240600,5.46124072265625,-0.1036943718791008,-0.09682214260101318,0.4205807149410248
1772883529292843300,5.47784326171875,-0.3000875413417816,0.3465133011341095,0.4340197443962097
1772883529309456000,5.494455810546875,-0.451582133769989,0.8987354636192322,0.584139883518219
1772883529326075400,5.511075439453125,-0.49296826124191284,1.2945761680603027,0.7757988572120667
1772883529342645800,5.527645751953125,-0.49846604466438293,1.3251193761825562,0.8480336666107178
1772883529359268900,5.544268798828125,-0.5400048494338989,1.0325149297714233,0.7221954464912415
1772883529375869700,5.56086962890625,-0.5256495475769043,0.8408560156822205,0.6168211698532104
1772883529392465000,5.57746484375,-0.2756529450416565,1.4567608833312988,0.7287622094154358
1772883529409070300,5.5940703125,0.32421672344207764,2.1652119159698486,1.0338894128799438
1772883529425676500,5.610676513671875,0.5884159207344055,1.048397421836853,0.6362161636352539
1772883529442274600,5.627274658203125,0.4683809280395508,-0.03955352306365967,-0.07467827945947647
1772883529458887000,5.643886962890625,-0.052381694316864014,-0.3474296033382416,-0.6947064995765686
1772883529475491800,5.660491943359375,-0.5592471361160278,-0.8289441466331482,-1.1394164562225342
1772883529492098300,5.677098388671875,-0.5296201705932617,-0.6038402915000916,-1.0387763977050781
1772883529508719600,5.6937197265625,-0.3052799105644226,-0.33047810196876526,-1.0945178270339966
1772883529525290800,5.710290771484375,-0.1062905490398407,0.39354994893074036,-1.2997685670852661
1772883529541893000,5.72689306640625,0.12400564551353455,0.5836817622184753,-1.4659239053726196
1772883529558533600,5.74353369140625,0.1892155110836029,-0.06200282275676727,-1.3972015380859375
1772883529575137800,5.7601376953125,0.19914206862449646,-0.7774787545204163,-1.154382586479187
1772883529591744000,5.776743896484375,0.22189679741859436,-0.5593998432159424,-0.8292495608329773
1772883529608335000,5.793335205078125,0.24297164380550385,-0.055283304303884506,-0.6276640295982361
1772883529624955000,5.809954833984375,0.2672535479068756,0.22815817594528198,-0.5975789427757263
1772883529641547000,5.826547119140625,0.197004035115242,0.06536258012056351,-0.655458390712738
1772883529658160600,5.84316064453125,0.08735372871160507,-0.18020524084568024,-0.6507241725921631
1772883529674754600,5.859754638671875,0.05696318298578262,-0.15974126756191254,-0.5073235630989075
1772883529691375600,5.876375732421875,0.09697485715150833,0.07651086896657944,-0.3197879493236542
1772883529707965700,5.892965576171875,0.18478673696517944,0.3776674270629883,-0.23777928948402405
1772883529724573400,5.909573486328125,0.11438451707363129,0.5739079117774963,-0.42867469787597656
1772883529741166300,5.926166259765625,-0.06001751124858856,0.48258355259895325,-0.7765624523162842
1772883529757784800,5.942784912109375,-0.17959438264369965,0.16569720208644867,-0.9983065128326416
1772883529774389200,5.95938916015625,-0.21624629199504852,-0.12370020896196365,-0.9702067375183105
1772883529790994700,5.97599462890625,-0.14813482761383057,-0.2444988191127777,-0.7464773058891296
1772883529807596500,5.992596435546875,-0.06215553730726242,-0.23518311977386475,-0.41813725233078003
1772883529824226600,6.0092265625,-0.026572637259960175,-0.235030397772789,-0.11575896292924881
1772883529840795100,6.025795166015625,-0.016035212203860283,-0.206777885556221,0.0835358202457428
1772883529857430300,6.04243017578125,-0.012522737495601177,-0.038637228310108185,0.19349156320095062
1772883529874017800,6.059017822265625,0.027488935738801956,0.22281309962272644,0.28130343556404114
1772883529890626000,6.0756259765625,0.08399397134780884,0.45814892649650574,0.39248090982437134
1772883529907233300,6.0922333984375,0.13148874044418335,0.5722280144691467,0.5294674634933472
1772883529923838500,6.10883837890625,0.12767083942890167,0.5294674634933472,0.6901249885559082
1772883529940430300,6.125430419921875,0.08460483700037003,0.351400226354599,0.8585711121559143
1772883529957047300,6.14204736328125,0.04917465150356293,0.1915062516927719,1.0056369304656982
1772883529973656600,6.158656494140625,0.0429132841527462,0.19898934662342072,1.088409185409546
1772883529990262500,6.175262451171875,0.04260785132646561,0.3130684494972229,1.104138970375061
1772883530006878500,6.19187841796875,0.04795292019844055,0.44165557622909546,1.1201741695404053
1772883530023484400,6.208484375,0.038179077208042145,0.41111230850219727,1.1305588483810425
1772883530040072700,6.22507275390625,0.03634648025035858,0.21823160350322723,1.2180652618408203
1772883530056695000,6.241695068359375,0.05161811411380768,0.18005253374576569,1.2890783548355103
1772883530073300200,6.25830029296875,0.2565633952617645,0.11636982858181,1.2622003555297852
1772883530089929700,6.2749296875,0.16142113506793976,-0.8100073337554932,0.6453791260719299
1772883530106509000,6.291509033203125,-0.2799290120601654,-1.330159068107605,-0.17806722223758698
1772883530123103700,6.308103759765625,-0.6319400668144226,-0.7919867634773254,-0.537408709526062
1772883530139709700,6.324709716796875,-0.6772968173027039,-0.07024950534105301,-0.627358615398407
1772883530156328000,6.341327880859375,-0.4902193546295166,0.5549710988998413,-0.7487680912017822
1772883530172932400,6.357932373046875,-0.21533000469207764,0.3430008292198181,-0.9532552361488342
1772883530189537800,6.374537841796875,0.06582073122262955,-0.2506074607372284,-0.8103127479553223
1772883530206126300,6.391126220703125,0.27122417092323303,-0.6357579827308655,-0.3271183371543884
1772883530222749200,6.407749267578125,0.32268956303596497,-0.2695443034172058,0.06520986557006836
1772883530239379000,6.42437890625,0.33887749910354614,0.4917465150356293,0.24648413062095642
1772883530255959000,6.440958984375,0.24694228172302246,1.0128145217895508,0.16462817788124084
1772883530272564500,6.457564453125,-0.008704829961061478,0.8749117255210876,-0.2252565622329712
1772883530289171000,6.4741708984375,-0.24236078560352325,0.2321287989616394,-0.7651087045669556
1772883530305748500,6.49074853515625,-0.3929390609264374,-0.37201693654060364,-1.16293466091156
1772883530322382800,6.5073828125,-0.498924195766449,-0.4712825417518616,-1.397048830986023
1772883530338956800,6.523956787109375,-0.42867469787597656,-0.10751228034496307,-1.4703526496887207
1772883530355589000,6.540589111328125,-0.29856038093566895,0.29504790902137756,-1.4230105876922607
1772883530372183300,6.557183349609375,-0.26419922709465027,0.3660610020160675,-1.4312572479248047
1772883530388786000,6.573785888671875,-0.3927863538265228,-0.03436116874217987,-1.5922203063964844
1772883530405397500,6.5903974609375,-0.4781547784805298,-0.6491970419883728,-1.4982997179031372
1772883530422000400,6.60700048828125,-0.5073235630989075,-0.8295549750328064,-0.9943358898162842
1772883530438595000,6.623594970703125,-0.4027129113674164,-0.523511528968811,-0.44058656692504883
1772883530455210500,6.64021044921875,-0.22311852872371674,-0.021074850112199783,-0.10461067408323288
1772883530471815700,6.656815673828125,-0.11010845750570297,0.45982882380485535,-0.009468411095440388
1772883530488439300,6.673439208984375,-0.11071932315826416,0.5694791078567505,-0.02733621932566166
1772883530505041700,6.690041748046875,-0.16508632898330688,0.3006984293460846,-0.05146539583802223
1772883530521650700,6.706650634765625,-0.21410827338695526,-0.019089538604021072,0.02535090781748295
1772883530538236700,6.723236572265625,-0.22876903414726257,-0.1310305893421173,0.21731531620025635
1772883530554857500,6.739857421875,-0.24572055041790009,-0.1085812970995903,0.45036038756370544
1772883530571461600,6.756461669921875,-0.18341228365898132,-0.12797626852989197,0.6667594313621521
1772883530588066800,6.77306689453125,-0.08628471940755844,-0.1186605766415596,0.8407033085823059
1772883530604656400,6.789656494140625,-0.022602014243602753,-0.048105638474226,0.9447031021118164
1772883530621278700,6.80627880859375,-0.022602014243602753,-0.0377209298312664,0.9529497623443604
1772883530637851100,6.82285107421875,-0.12889257073402405,-0.1944078654050827,0.8895725011825562
1772883530654488800,6.83948876953125,-0.3956879675388336,-0.12431107461452484,0.7470881938934326
1772883530671094000,6.856093994140625,-0.6050620079040527,0.07360926270484924,0.7492262125015259
1772883530687700000,6.872699951171875,-0.5451972484588623,0.37140607833862305,1.036943793296814
1772883530704307200,6.88930712890625,-0.055283304303884506,0.7298312783241272,1.621694564819336
1772883530720909000,6.905908935546875,0.11407908797264099,-0.08078692853450775,1.7261524200439453
1772883530737499400,6.92249951171875,-0.7096726894378662,-1.195005178451538,0.6786713004112244
1772883530754122200,6.939122314453125,-1.3095424175262451,-1.1491901874542236,-0.24037547409534454
1772883530770726000,6.955725830078125,-0.903164267539978,-0.49495357275009155,-0.17821992933750153
1772883530787331600,6.97233154296875,-0.08277224004268646,0.14645494520664215,0.6614143252372742
1772883530803907300,6.9889072265625,0.2955060601234436,0.33948835730552673,1.4483615159988403
1772883530820538600,7.00553857421875,0.3173444867134094,-0.603076696395874,1.2646437883377075
1772883530837115100,7.022115234375,0.21762074530124664,-1.083064079284668,0.8856018781661987
1772883530853740300,7.038740234375,0.17287486791610718,-0.2793181240558624,0.7712173461914062
1772883530870345000,7.055344970703125,0.13668109476566315,0.9665415287017822,0.5905539989471436
1772883530886951400,7.071951416015625,0.044135015457868576,1.399950385093689,0.2542726695537567
1772883530903555800,7.088555908203125,0.03298672288656235,0.8142833709716797,0.02672535367310047
1772883530920173300,7.10517333984375,0.21410827338695526,-0.012828170321881771,0.13240504264831543
1772883530936753400,7.12175341796875,0.46868637204170227,-0.43875396251678467,0.313373863697052
1772883530953373200,7.138373291015625,0.6188064813613892,-0.4550946056842804,0.403323769569397
1772883530969977300,7.154977294921875,0.6403394937515259,-0.355981707572937,0.42928555607795715
1772883530986600000,7.171599853515625,0.5827654600143433,-0.19349156320095062,0.38698312640190125
1772883531003201500,7.188201416015625,0.46181413531303406,0.03726277872920036,0.3425426781177521
1772883531019803400,7.204803466796875,0.2724458873271942,0.01710422709584236,0.1719585657119751
1772883531036375800,7.221375732421875,0.10308351367712021,-0.20525072515010834,-0.14416420459747314
1772883531053022500,7.2380224609375,0.0328340083360672,-0.5287038683891296,-0.45891252160072327
1772883531069623300,7.254623291015625,0.08979719132184982,-0.6995934247970581,-0.5791002511978149
1772883531086229800,7.271229736328125,0.2054034322500229,-0.5091561675071716,-0.48426342010498047
1772883531102818300,7.287818359375,0.31520646810531616,-0.08368854224681854,-0.3536909818649292
1772883531119463200,7.304463134765625,0.3481931984424591,0.29733866453170776,-0.24984388053417206
1772883531136027600,7.321027587890625,0.30283644795417786,0.485027015209198,-0.1492038369178772
1772883531152654000,7.337654052734375,0.24984388053417206,0.4489859640598297,-0.002138028386980295
1772883531169255400,7.35425537109375,0.18677204847335815,0.2197587788105011,0.18585574626922607
1772883531185856800,7.370856689453125,0.1569923609495163,0.10033461451530457,0.3891211748123169
1772883531202475000,7.38747509765625,0.12095131725072861,0.20845776796340942,0.5679519772529602
1772883531219070000,7.404070068359375,0.02168571576476097,0.25595253705978394,0.6684392690658569
1772883531235643400,7.420643310546875,-0.10445795953273773,0.16401731967926025,0.6102544069290161
1772883531252287200,7.437287353515625,-0.20891591906547546,0.08949175477027893,0.46761733293533325
1772883531268888000,7.45388818359375,-0.308792382478714,0.09575312584638596,0.413555771112442
1772883531285494000,7.470493896484375,-0.3246748745441437,0.20097467303276062,0.5097670555114746
1772883531302072600,7.487072509765625,-0.26893341541290283,0.4283692538738251,0.7538077235221863
1772883531318706700,7.503706787109375,-0.2070833146572113,0.5647448897361755,1.0416779518127441
1772883531335322400,7.520322265625,-0.13179416954517365,0.7206682562828064,1.2374602556228638
1772883531351902200,7.536902099609375,0.07177666574716568,0.17379115521907806,0.9790642857551575
1772883531368506600,7.553506591796875,-0.43508878350257874,-1.7414240837097168,-0.4524984359741211
1772883531385111800,7.57011181640625,-0.9868528246879578,-1.7737998962402344,-1.0351111888885498
1772883531401717200,7.58671728515625,-0.9419541954994202,-0.8866708874702454,-0.6606507897377014
1772883531418312700,7.603312744140625,-0.7396050691604614,0.3349068760871887,-0.15271630883216858
1772883531434915000,7.6199150390625,-0.43279802799224854,1.2670872211456299,-0.21624629199504852
1772883531451533600,7.636533447265625,-0.1837177276611328,0.6985244154930115,-0.9053022861480713
1772883531468138800,7.653138671875,-0.1598939746618271,-0.25702154636383057,-1.1917980909347534
1772883531484762400,7.669762451171875,-0.2064724564552307,-1.070388674736023,-0.9486737251281738
1772883531501362700,7.68636279296875,-0.3799581825733185,-0.9382890462875366,-0.42531493306159973
1772883531517978600,7.702978515625,-0.4720461070537567,0.16783522069454193,0.2021963894367218
1772883531534584600,7.71958447265625,-0.28099802136421204,0.8005388975143433,0.6771441102027893
1772883531551180500,7.7361806640625,-0.036193765699863434,0.4153883755207062,0.6438519954681396
1772883531567784700,7.75278466796875,0.17211128771305084,-0.3113885521888733,0.07987063378095627
1772883531584390400,7.769390380859375,0.2768746614456177,-0.7687739133834839,-0.4964807331562042
1772883531600995300,7.785995361328125,0.25931230187416077,-0.6670648455619812,-0.6296493411064148
1772883531617602300,7.802602294921875,0.22143864631652832,-0.1108720451593399,-0.3295617997646332
1772883531634202000,7.8192021484375,0.22479841113090515,0.33475416898727417,0.03436116874217987
1772883531650816000,7.83581591796875,0.2538145184516907,0.22968533635139465,0.1817324161529541
1772883531667416800,7.852416748046875,0.2921462953090668,-0.3323107063770294,0.06017022579908371
1772883531684023600,7.8690234375,0.29168814420700073,-1.0910053253173828,-0.3474296033382416
1772883531700611300,7.885611328125,0.16508632898330688,-1.5836681127548218,-0.9518807530403137
1772883531717233700,7.902233642578125,0.13454307615756989,-1.2214250564575195,-1.2779301404953003
1772883531733834800,7.918834716796875,0.2863430976867676,-0.22357667982578278,-1.1562151908874512
1772883531750444500,7.935444580078125,0.4444044530391693,0.7528914213180542,-0.7864890098571777
1772883531767053600,7.952053466796875,0.3900374472141266,1.2841914892196655,-0.4004221558570862
1772883531783654400,7.968654296875,0.2002110779285431,0.9758572578430176,-0.17699819803237915
1772883531800236800,7.98523681640625,0.059864792972803116,0.2919935882091522,-0.13408492505550385
1772883531816866300,8.0018662109375,0.07895433157682419,-0.02321287989616394,-0.12400564551353455
1772883531833454000,8.0184541015625,0.17928895354270935,0.09178250283002853,-0.04245513305068016
1772883531850062800,8.035062744140625,0.3260493278503418,0.39645153284072876,0.11789698898792267
1772883531866668000,8.05166796875,0.44745880365371704,0.5804746747016907,0.2883284091949463
1772883531883274200,8.068274169921875,0.4352414906024933,0.694553792476654,0.5076290369033813
1772883531899878700,8.084878662109375,0.3211624026298523,0.6235406994819641,0.7070765495300293
1772883531916484400,8.101484375,0.168751522898674,0.24342979490756989,0.7941248416900635
1772883531933089800,8.11808984375,0.16661348938941956,0.01114829070866108,0.8781188130378723
1772883531949696000,8.134696044921874,0.342695415019989,0.23548854887485504,1.0632109642028809
1772883531966303700,8.1513037109375,0.4476115107536316,0.25671613216400146,1.1151344776153564
1772883531982919200,8.167919189453125,0.4631885588169098,-0.27718010544776917,1.1273517608642578
1772883531999508000,8.184508056640626,0.4210388660430908,-0.740368664264679,1.2038626670837402
1772883532016131000,8.201131103515625,0.3827070891857147,-0.4518875777721405,1.161102056503296
1772883532032732000,8.21773193359375,-0.03222314268350601,-0.9676105380058289,0.2594650089740753
1772883532049343500,8.234343505859375,-0.7261660695075989,-0.8741481900215149,-0.5765040516853333
1772883532065948400,8.250948486328125,-0.6340781450271606,-0.09453139454126358,-0.5955936312675476
1772883532082552300,8.26755224609375,-0.23182335495948792,0.4356996417045593,-0.2444988191127777
1772883532099157000,8.284156982421875,0.2102903574705124,0.964403510093689,0.03695734590291977
1772883532115762400,8.300762451171876,0.3982841372489929,0.8953757286071777,0.14966198801994324
1772883532132364000,8.317364013671876,0.2866485118865967,0.42577308416366577,0.31871894001960754
1772883532148978700,8.333978759765625,0.026114489883184433,0.1595885455608368,0.5050328373908997
1772883532165578500,8.35057861328125,-0.2393064647912979,0.11820242553949356,0.5183191895484924
1772883532182184000,8.367183837890625,-0.2538145184516907,0.5090034604072571,0.5642867684364319
1772883532198784800,8.38378466796875,0.08949175477027893,0.9353874325752258,0.5520694851875305
1772883532215384800,8.400384765625,0.408974289894104,0.8211556077003479,0.3507893681526184
1772883532232000500,8.41700048828125,0.5271766781806946,0.2399173229932785,-0.09025534242391586
1772883532248602400,8.433602294921876,0.4607451260089874,-0.28619036078453064,-0.42012256383895874
1772883532265214200,8.450214111328124,0.4303545653820038,-0.36911532282829285,-0.4360050559043884
1772883532281813000,8.46681298828125,0.4528038501739502,0.05757404863834381,-0.20326541364192963
1772883532298425600,8.483425537109374,0.40622538328170776,0.575893223285675,0.07452555745840073
1772883532315008800,8.5000087890625,0.2649627923965454,0.684474527835846,0.1437060534954071
1772883532331618800,8.516618896484376,0.14966198801994324,0.22632557153701782,0.09804387390613556
1772883532348225000,8.53322509765625,0.11468994617462158,-0.4732678532600403,-0.010842857882380486
1772883532364829400,8.549829345703126,0.11163562536239624,-1.041372537612915,-0.2018909603357315
1772883532381434600,8.5664345703125,0.04688390716910362,-1.153160810470581,-0.3602577745914459
1772883532398037000,8.583037109375,0.00045814894838258624,-0.7637342810630798,-0.4219551682472229
1772883532414643200,8.599643310546876,0.04948008432984352,-0.10491610318422318,-0.3700316250324249
1772883532431250700,8.616250732421875,0.06704246252775192,0.5713117122650146,-0.28420504927635193
1772883532447856600,8.632856689453124,-0.07757988572120667,0.6438519954681396,-0.10965031385421753
1772883532464478700,8.649478759765625,-0.1889100819826126,0.3049744665622711,0.09865473955869675
1772883532481081900,8.666081787109375,-0.20922134816646576,-0.037110064178705215,0.3813326358795166
1772883532497685800,8.682685791015626,-0.12721268832683563,-0.023518312722444534,0.702800452709198
1772883532514278700,8.699278564453126,0.016798794269561768,0.29794952273368835,0.9097310900688171
1772883532530897000,8.71589697265625,0.0013744467869400978,0.4807509481906891,0.9097310900688171
1772883532547499800,8.732499755859376,-0.13271047174930573,0.2880229651927948,0.7405213713645935
1772883532564112100,8.749112060546874,-0.2532036304473877,0.08246681094169617,0.5821545720100403
1772883532580713000,8.765712890625,-0.29993483424186707,0.1892155110836029,0.6039929986000061
1772883532597318000,8.78231787109375,-0.25824329257011414,0.4908302128314972,0.8115344643592834
1772883532613910500,8.79891064453125,-0.18509216606616974,0.6632469296455383,0.9402743577957153
1772883532630529000,8.815529052734375,-0.05543602257966995,0.6009386777877808,0.9608910083770752
1772883532647131000,8.832130859375,0.26771169900894165,0.5004513263702393,0.8784242272377014
1772883532663744000,8.848743896484375,0.1160643994808197,-0.9564622640609741,-0.2370157092809677
1772883532680346000,8.86534619140625,-0.41813725233078003,-1.394452691078186,-1.2492194175720215
1772883532696950300,8.8819501953125,-0.5629123449325562,-0.28267788887023926,-1.4821118116378784
1772883532713539600,8.89853955078125,-0.4746423065662384,0.6146831512451172,-1.2568552494049072
1772883532730161200,8.9151611328125,-0.2474004179239273,0.7402159571647644,-1.0731375217437744
1772883532746764000,8.931763916015624,-0.24587325751781464,-0.2344195395708084,-1.1800389289855957
1772883532763377000,8.948376953125,-0.2814561724662781,-1.0610729455947876,-1.0621418952941895
1772883532779986200,8.964986083984375,-0.21349740028381348,-1.130711555480957,-0.721737265586853
1772883532796582400,8.98158251953125,-0.10705413669347763,-0.13240504264831543,-0.30970868468284607
1772883532813180200,8.99818017578125,-0.0403171069920063,1.0651962757110596,0.04138612002134323
1772883532829780000,9.014780029296874,0.024129176512360573,1.1676689386367798,0.3058907687664032
1772883532846372000,9.0313720703125,0.12308934330940247,0.437226802110672,0.43218716979026794
1772883532862990800,9.047990966796876,0.2919935882091522,-0.19807305932044983,0.35659259557724
1772883532879586000,9.0645859375,0.3625485301017761,-0.15974126756191254,0.197004035115242
1772883532896201000,9.081200927734375,0.3620903789997101,0.13729196786880493,0.10354165732860565
1772883532912807000,9.097806884765625,0.36651915311813354,0.5115996599197388,0.10552696883678436
1772883532929412000,9.114412109375,0.3588833212852478,0.7994698882102966,0.13057245314121246
1772883532946018600,9.1310185546875,0.23075434565544128,0.7745771408081055,0.07727445662021637
1772883532962640100,9.14764013671875,0.09468411654233932,0.4818199574947357,-0.07299839705228806
1772883532979242000,9.164241943359375,0.07727445662021637,0.24862214922904968,-0.24159720540046692
1772883532995847200,9.18084716796875,0.1215621829032898,0.1895209401845932,-0.35643985867500305
1772883533012437200,9.197437255859375,0.11224649101495743,0.2054034322500229,-0.43707409501075745
1772883533029058000,9.21405810546875,0.012064588256180286,0.25702154636383057,-0.48915034532546997
1772883533045663500,9.23066357421875,-0.13209961354732513,0.266184538602829,-0.41340306401252747
1772883533062265600,9.247265625,-0.19746218621730804,0.06734789162874222,-0.16783522069454193
1772883533078845200,9.26384521484375,-0.12278391420841217,-0.46822822093963623,0.1088867336511612
