time,seconds_elapsed,z,y,x
1772883523966630700,0.151630615234375,8.623732566833496,2.465803623199463,0.4259224236011505
1772883523983250200,0.168250244140625,8.775676727294922,2.5250260829925537,0.40677985548973083
1772883523999855400,0.18485546875,8.92821979522705,2.489732027053833,0.28594231605529785
1772883524016454400,0.201454345703125,8.59322452545166,2.4675984382629395,0.17288143932819366
1772883524033067500,0.218067626953125,8.540582656860352,2.6973092555999756,0.0933200865983963
1772883524049672000,0.234671875,8.411968231201172,2.830709218978882,0.631106972694397
1772883524066290400,0.25129052734375,8.27258586883545,3.16331148147583,0.6915257573127747
1772883524082890500,0.267890380859375,7.725826263427734,3.012563705444336,0.841675341129303
1772883524099502300,0.28450244140625,7.059424877166748,2.815753936767578,0.04546362906694412
1772883524116100400,0.301100341796875,7.347760200500488,2.555534601211548,-0.48454657196998596
1772883524132716500,0.317716552734375,8.036892890930176,2.248655080795288,-0.6915257573127747
1772883524149283300,0.334283447265625,8.426324844360352,1.8987047672271729,-0.6628118753433228
1772883524165910000,0.350909912109375,8.791230201721191,1.6564314365386963,-0.4223332107067108
1772883524182513700,0.367513671875,8.655437469482422,1.5948163270950317,-0.10648060590028763
1772883524199118600,0.38411865234375,8.644071578979492,1.5966109037399292,0.3002992272377014
1772883524215725300,0.400725341796875,8.763114929199219,1.4476577043533325,0.537188708782196
1772883524232329200,0.4173291015625,9.037093162536621,1.1718848943710327,0.6532405614852905
1772883524248945200,0.433945068359375,8.974879264831543,0.8847461938858032,0.5892325639724731
1772883524265552400,0.450552490234375,8.46161937713623,0.857228696346283,0.28594231605529785
1772883524282155500,0.467155517578125,7.954938888549805,0.9828519225120544,0.046061836183071136
1772883524298764000,0.483763916015625,7.436892986297607,1.5194423198699951,-0.11006984114646912
1772883524315368000,0.500367919921875,6.884748935699463,2.134995937347412,-0.04007977992296219
1772883524331966200,0.51696630859375,6.810571670532227,2.648256540298462,0.3086741268634796
1772883524348579800,0.533579833984375,8.144570350646973,3.1890344619750977,0.9457631707191467
1772883524365184500,0.5501845703125,10.515857696533203,3.5617165565490723,1.7820546627044678
1772883524381800000,0.566800048828125,12.711870193481445,3.9702908992767334,2.1361923217773438
1772883524398384000,0.583384033203125,12.982258796691895,4.511068820953369,1.9232312440872192
1772883524415016400,0.600016357421875,14.687743186950684,4.814359188079834,1.6049858331680298
1772883524431613200,0.61661328125,17.643478393554688,4.311866283416748,1.3692927360534668
1772883524448212200,0.633212158203125,19.478174209594727,4.405186653137207,1.1778669357299805
1772883524464798200,0.649798095703125,18.959529876708984,5.226522922515869,1.846660852432251
1772883524481414000,0.666413818359375,17.806787490844727,5.950351715087891,2.551945447921753
1772883524498014500,0.683014404296875,17.69312858581543,6.300900459289551,2.2683959007263184
1772883524514626300,0.699626220703125,16.54277992248535,6.118447303771973,1.4177473783493042
1772883524531230500,0.71623046875,14.428720474243164,5.904289722442627,0.20338992774486542
1772883524547832600,0.73283251953125,12.953545570373535,5.614160060882568,-0.8231309652328491
1772883524564455400,0.749455322265625,12.41695499420166,5.064409255981445,-0.9966106414794922
1772883524581052700,0.766052734375,11.743973731994629,4.416552543640137,-0.4905286431312561
1772883524597664000,0.7826640625,10.563714027404785,3.8368911743164062,0.3535395562648773
1772883524614268200,0.79926806640625,9.311071395874023,3.150151014328003,1.4033905267715454
1772883524630880500,0.815880615234375,8.200801849365234,2.376072883605957,2.111665964126587
1772883524647475200,0.83247509765625,7.410571575164795,1.5936198234558105,1.94297194480896
1772883524664083700,0.849083740234375,6.343971252441406,1.0426725149154663,1.160519003868103
1772883524680691700,0.865691650390625,5.443671703338623,1.0917253494262695,0.44327038526535034
1772883524697290200,0.882290283203125,4.201796531677246,1.1934202909469604,0.39421752095222473
1772883524713896700,0.898896728515625,3.297907829284668,1.4841482639312744,0.544965386390686
1772883524730511000,0.915510986328125,3.157329559326172,1.4895321130752563,0.25363919138908386
1772883524747109600,0.932109619140625,3.1100711822509766,1.1892328262329102,-0.4989035129547119
1772883524763718000,0.9487177734375,2.7553353309631348,1.017547845840454,-1.0815558433532715
1772883524780319700,0.96531982421875,2.365903377532959,1.0480563640594482,-1.2562319040298462
1772883524796926500,0.981926513671875,1.9196419715881348,1.246660590171814,-0.9176474809646606
1772883524813534000,0.998533935546875,1.9513468742370605,1.506281852722168,-0.4570291340351105
1772883524830140700,1.015140625,2.152343988418579,1.4135600328445435,0.03888336941599846
1772883524846742300,1.0317421875,2.217548370361328,1.0636097192764282,0.1986042857170105
1772883524863349800,1.048349853515625,2.3401806354522705,0.6993024349212646,0.39601215720176697
1772883524879937000,1.06493701171875,2.510669231414795,0.25304099917411804,0.23389841616153717
1772883524896562000,1.08156201171875,2.861217737197876,0.26979073882102966,-0.1986042857170105
1772883524913159000,1.098158935546875,3.1752755641937256,0.6323033571243286,-0.21655045449733734
1772883524929779000,1.114779052734375,3.9397823810577393,1.7784653902053833,-0.6622136831283569
1772883524946357500,1.131357421875,4.623531341552734,2.538186550140381,-0.7848458290100098
1772883524962984000,1.14798388671875,6.826124668121338,4.304687976837158,-2.0608184337615967
1772883524979574500,1.164574462890625,12.192627906799316,4.738387107849121,-1.2179467678070068
1772883524996176600,1.1811767578125,16.55414581298828,2.334198474884033,2.465803623199463
1772883525012788000,1.1977880859375,16.7802677154541,3.2027931213378906,3.049652576446533
1772883525029389600,1.2143896484375,16.784454345703125,4.247260093688965,2.2923240661621094
1772883525045992200,1.2309921875,18.644874572753906,5.1218366622924805,0.2267199456691742
1772883525062622200,1.247622314453125,19.88555335998535,5.515456199645996,-0.6526423692703247
1772883525079214800,1.26421484375,19.831714630126953,5.960521221160889,0.4989035129547119
1772883525095824400,1.280824462890625,20.13440704345703,5.880361557006836,1.9262222051620483
1772883525112431600,1.297431640625,22.531415939331055,5.4795637130737305,1.3980066776275635
1772883525129039400,1.314039306640625,21.33380889892578,5.8133625984191895,-0.04187439754605293
1772883525145639400,1.330639404296875,17.28694725036621,6.000002861022949,-0.706480860710144
1772883525162247400,1.347247314453125,14.023137092590332,6.22492790222168,-0.9014959335327148
1772883525178851800,1.363851806640625,12.620943069458008,5.909075736999512,-1.0390832424163818
1772883525195456500,1.38045654296875,12.709477424621582,5.184648513793945,-0.633499801158905
1772883525212065300,1.397065185546875,13.222738265991211,4.5714874267578125,0.06161518394947052
1772883525228665600,1.41366552734375,13.152748107910156,3.9020955562591553,0.5258227586746216
1772883525245272000,1.43027197265625,11.550752639770508,3.5270206928253174,0.35533416271209717
1772883525261879600,1.446879638671875,9.519247055053711,3.0251259803771973,-0.04366901144385338
1772883525278485500,1.463485595703125,8.161319732666016,2.3994028568267822,-0.25064817070961
1772883525295089700,1.480089599609375,7.149754047393799,1.770688772201538,-0.16869398951530457
1772883525311695600,1.496695556640625,6.386443614959717,1.4871392250061035,0.14476576447486877
1772883525328300800,1.51330078125,5.711667537689209,1.3244273662567139,0.41515472531318665
1772883525344904700,1.52990478515625,4.869992256164551,1.3244273662567139,0.4534398913383484
1772883525361511200,1.54651123046875,4.033102512359619,1.2592228651046753,0.34277185797691345
1772883525378115600,1.563115478515625,3.3589248657226562,1.1341979503631592,0.05383851006627083
1772883525394727400,1.5797275390625,2.9252257347106934,0.8703892230987549,-0.39541393518447876
1772883525411329300,1.596329345703125,2.097309112548828,0.5006981492042542,-0.7902296781539917
1772883525427936300,1.612936279296875,1.0097711086273193,0.4486542344093323,-1.1431710720062256
1772883525444521200,1.629521240234375,0.25004997849464417,0.6885347366333008,-0.97926265001297
1772883525461131800,1.6461318359375,0.48514479398727417,1.2717852592468262,-0.6604190468788147
1772883525477747200,1.662747314453125,1.2382856607437134,1.4069796800613403,-0.3415754437446594
1772883525494344400,1.679344482421875,2.121237277984619,1.3298112154006958,0.09571290761232376
1772883525510946000,1.695946044921875,2.2612173557281494,1.1120643615722656,0.23330020904541016
1772883525527554300,1.71255419921875,1.607378602027893,0.6562315821647644,0.20997019112110138
1772883525544160500,1.729160400390625,1.8059829473495483,0.28534409403800964,1.3196417093276978
1772883525560770000,1.74577001953125,2.121237277984619,1.5954145193099976,0.3188436031341553
1772883525577379000,1.762379150390625,2.3742783069610596,3.0215368270874023,-0.6281159520149231
1772883525593995300,1.778995361328125,3.3589248657226562,5.315655708312988,-2.548356056213379
1772883525610595000,1.795594970703125,2.0512471199035645,3.0855448246002197,-1.3459627628326416
1772883525627199200,1.81219921875,4.890929698944092,4.289732933044434,-2.537588357925415
1772883525643807500,1.828807373046875,8.755337715148926,2.9138598442077637,-0.9050851464271545
1772883525660409600,1.84540966796875,12.174083709716797,0.3367897868156433,0.7280163168907166
1772883525677010000,1.862010009765625,15.279369354248047,0.004187439568340778,0.33858439326286316
1772883525693626400,1.87862646484375,18.25185203552246,1.012762188911438,-0.7752745151519775
1772883525710227200,1.895227294921875,20.535802841186523,0.5132604837417603,-1.7114664316177368
1772883525726828800,1.911828857421875,22.61277198791504,-1.241276741027832,-2.537588357925415
1772883525743442200,1.928442138671875,23.95813751220703,-2.7493531703948975,-3.1447670459747314
1772883525760043500,1.94504345703125,24.580270767211914,-2.662015199661255,-3.7950167655944824
1772883525776648700,1.961648681640625,24.320051193237305,-0.5736792087554932,-4.037888050079346
1772883525793240000,1.978239990234375,21.0909366607666,0.9912267923355103,-3.040081262588501
1772883525809860600,1.994860595703125,17.34377670288086,0.3966103494167328,-1.7252250909805298
1772883525826447400,2.011447265625,15.832111358642578,0.8554341197013855,-1.654038667678833
1772883525843058000,2.028057861328125,15.62692642211914,0.997208833694458,-2.0793628692626953
1772883525859665700,2.044665771484375,15.190834999084473,0.7381857633590698,-2.585444927215576
1772883525876267500,2.061267578125,14.244473457336426,0.2386840581893921,-2.5531418323516846
1772883525892875000,2.077875,12.075379371643066,0.5880361795425415,-1.8161523342132568
1772883525909480700,2.094480712890625,9.260822296142578,1.215553879737854,-0.9690931439399719
1772883525926093300,2.11109326171875,6.926623344421387,1.5002998113632202,-0.534795880317688
1772883525942694400,2.1276943359375,6.095117568969727,1.573280930519104,-0.5718846321105957
1772883525959296500,2.144296630859375,5.528018474578857,1.222732424736023,-0.6131607890129089
1772883525975900400,2.160900390625,4.9363932609558105,0.7417750358581543,-0.6574280261993408
1772883525992507400,2.17750732421875,4.322035789489746,0.2069791555404663,-0.8141579031944275
1772883526009112000,2.194112060546875,3.7118661403656006,-0.028115665540099144,-0.9535398483276367
1772883526025715700,2.2107158203125,3.336193084716797,0.16869398951530457,-0.9373882412910461
1772883526042339800,2.22733984375,2.9150562286376953,0.37866419553756714,-0.5778666734695435
1772883526058946000,2.243946044921875,2.4508485794067383,0.5563312768936157,-0.355932354927063
1772883526075543800,2.260543701171875,2.702693223953247,0.7357929348945618,-0.33918261528015137
1772883526092155400,2.2771552734375,3.665804386138916,0.6197410821914673,-0.2757728099822998
1772883526108757500,2.293757568359375,4.134199142456055,0.5006981492042542,-0.5700899958610535
1772883526125361700,2.310361572265625,4.132404804229736,0.6005984544754028,-0.5042873620986938
1772883526141964000,2.326964111328125,3.5461630821228027,1.0199406147003174,-0.15912270545959473
1772883526158575600,2.34357568359375,3.4432718753814697,1.7431713342666626,0.16689938306808472
1772883526175174000,2.360173828125,3.8979079723358154,1.765903115272522,0.760917603969574
1772883526191788800,2.376788818359375,5.574080467224121,1.7509479522705078,0.7627122402191162
1772883526208389400,2.393389404296875,8.748159408569336,2.613560438156128,-1.1581261157989502
1772883526225014300,2.41001416015625,11.200204849243164,3.6472599506378174,-2.2707886695861816
1772883526241602000,2.42660205078125,11.790035247802734,5.342574596405029,-1.9974087476730347
1772883526258221800,2.443221923828125,13.519448280334473,6.141777515411377,-0.5300102233886719
1772883526274809300,2.459809326171875,15.942779541015625,4.744967460632324,-1.2556337118148804
1772883526291417000,2.4764169921875,16.7862491607666,4.470390796661377,-2.541775941848755
1772883526308024800,2.49302490234375,17.19243049621582,4.215555191040039,-2.940778970718384
1772883526324630300,2.50963037109375,17.89053726196289,3.648456335067749,-3.415156126022339
1772883526341218300,2.52621826171875,18.789640426635742,3.1076784133911133,-2.806781053543091
1772883526357845200,2.54284521484375,19.1730899810791,2.6327030658721924,-1.5104693174362183
1772883526374435000,2.55943505859375,17.434703826904297,3.0717861652374268,-0.2189432680606842
1772883526391052000,2.576052001953125,15.963716506958008,3.5150563716888428,-0.7926225066184998
1772883526407659500,2.592659423828125,15.437893867492676,2.7876384258270264,-1.7407784461975098
1772883526424244700,2.60924462890625,14.9013032913208,2.117648124694824,-1.934597134590149
1772883526440853200,2.625853271484375,14.127224922180176,1.7623138427734375,-1.5086746215820312
1772883526457458200,2.642458251953125,12.247064590454102,1.9369899034500122,-1.2508480548858643
1772883526474048800,2.659048828125,10.278369903564453,2.420340061187744,-1.205384373664856
1772883526490665200,2.675665283203125,8.849854469299316,2.8085756301879883,-0.7363911867141724
1772883526507274200,2.692274169921875,8.062017440795898,2.7086751461029053,-0.0077766734175384045
1772883526523880700,2.708880615234375,7.860422611236572,2.3096721172332764,0.5126622319221497
1772883526540486400,2.725486328125,7.844869136810303,1.6857435703277588,0.8189435601234436
1772883526557089800,2.74208984375,7.369295597076416,1.195214867591858,0.6849454641342163
1772883526573694000,2.75869384765625,6.526423931121826,0.9278169870376587,0.42711883783340454
1772883526590320400,2.7753203125,5.705087184906006,0.9326026439666748,0.25722843408584595
1772883526606924000,2.791924072265625,5.0362935066223145,1.100698471069336,-0.1788634955883026
1772883526623526100,2.808526123046875,4.438685894012451,1.3142578601837158,-0.49651068449020386
1772883526640130800,2.825130859375,3.865006685256958,1.2490534782409668,-0.4815555512905121
1772883526656735700,2.84173583984375,3.436093330383301,1.308275818824768,-0.5407779216766357
1772883526673339000,2.8583388671875,3.4277184009552,1.384247899055481,-0.6323033571243286
1772883526689942000,2.87494189453125,3.7974095344543457,1.2442678213119507,-0.6478567123413086
1772883526706539000,2.8915390625,3.6873397827148438,1.176072359085083,-0.5258227586746216
1772883526723145200,2.908145263671875,3.3403804302215576,1.2077772617340088,-0.3314059376716614
1772883526739751700,2.924751708984375,3.170490026473999,1.1856436729431152,-0.26440688967704773
1772883526756355000,2.94135498046875,3.239881753921509,0.8739784955978394,-0.20458634197711945
1772883526772950000,2.957949951171875,3.751945972442627,0.5419743061065674,-0.137587308883667
1772883526789585700,2.974585693359375,4.668995380401611,0.2386840581893921,-0.0568295381963253
1772883526806183700,2.99118359375,5.776872158050537,0.04187439754605293,-0.07597211748361588
1772883526822793200,3.007793212890625,6.759125709533691,0.9367900490760803,-0.4085744619369507
1772883526839394800,3.024394775390625,7.75334358215332,3.366701364517212,-2.338984251022339
1772883526856002300,3.041002197265625,8.392227172851562,4.598406791687012,-3.0999016761779785
1772883526872585700,3.057585693359375,9.333803176879883,4.43330192565918,0.4163511395454407
1772883526889219600,3.074219482421875,12.245867729187012,2.9826533794403076,1.9130617380142212
1772883526905814800,3.090814697265625,16.114463806152344,2.8241288661956787,0.841675341129303
1772883526922430700,3.1074306640625,18.960725784301758,2.5669004917144775,0.01615155301988125
1772883526939013400,3.124013427734375,20.200807571411133,3.0442686080932617,-0.17587246000766754
1772883526955622000,3.140621826171875,18.621543884277344,3.826721668243408,1.0767701864242554
1772883526997132800,3.1821328125,17.062021255493164,5.502893924713135,0.7357929348945618
1772883527013741000,3.198740966796875,18.481563568115234,4.862813949584961,0.09152546525001526
1772883527030344400,3.215344482421875,18.85544204711914,3.1956145763397217,-0.9750752449035645
1772883527046966300,3.23196630859375,17.97907066345215,2.8600213527679443,-2.039283037185669
1772883527063568400,3.248568359375,15.951153755187988,3.363710403442383,-1.908874273300171
1772883527080174000,3.265174072265625,13.635499954223633,3.8117663860321045,-1.2903295755386353
1772883527096779500,3.281779541015625,11.187044143676758,3.9194436073303223,-0.6777670383453369
1772883527113368000,3.2983681640625,9.101698875427246,3.8727834224700928,-0.6711867451667786
1772883527129990700,3.31499072265625,7.377072334289551,3.4576287269592285,-0.7357929348945618
1772883527146596000,3.33159619140625,6.507281303405762,2.7284159660339355,-0.5018945336341858
1772883527163206000,3.348205810546875,6.558726787567139,1.7048860788345337,0.08315058797597885
1772883527179806000,3.364805908203125,6.75075101852417,0.8321040868759155,0.534795880317688
1772883527196412000,3.381411865234375,6.314659118652344,0.3678964674472809,0.5814558863639832
1772883527213013200,3.39801318359375,5.275575637817383,0.42771705985069275,0.631106972694397
1772883527229629200,3.414629150390625,4.381856441497803,0.6430711150169373,0.6711867451667786
1772883527246223600,3.4312236328125,4.596014022827148,1.0977073907852173,0.3577269911766052
1772883527262823200,3.4478232421875,5.037489891052246,1.2376874685287476,0.18364913761615753
1772883527279438800,3.46443896484375,5.295914649963379,1.461416482925415,0.09810572862625122
1772883527296044500,3.48104443359375,4.801796913146973,1.6163517236709595,0.3840480446815491
1772883527312638000,3.497637939453125,4.094717979431152,1.9543378353118896,0.8117650747299194
1772883527329255700,3.514255615234375,3.600001573562622,2.17627215385437,1.1509476900100708
1772883527345856500,3.5308564453125,3.744169235229492,2.087737798690796,1.0199406147003174
1772883527362470700,3.547470703125,3.996612071990967,1.4865410327911377,0.5982056856155396
1772883527379071200,3.5640712890625,3.929612874984741,0.8476574420928955,0.19202402234077454
1772883527395677000,3.580677001953125,3.9278182983398438,0.3284149169921875,-0.12741780281066895
1772883527412276500,3.5972763671875,4.036093711853027,0.24227328598499298,0.03409772366285324
1772883527428871000,3.613870849609375,4.3070807456970215,0.6831508874893188,0.31764721870422363
1772883527445479400,3.6304794921875,4.422534465789795,1.2526426315307617,-0.09930214285850525
1772883527462085000,3.647085205078125,5.653641700744629,4.2281174659729,-3.0687949657440186
1772883527478694000,3.66369384765625,4.981856822967529,4.88853645324707,-2.1756739616394043
1772883527495296000,3.6802958984375,7.431509017944336,4.576273441314697,0.592223584651947
1772883527511888400,3.696888427734375,13.015758514404297,4.517050743103027,1.1868400573730469
1772883527528523300,3.713523193359375,16.824533462524414,2.5639095306396484,-0.14057832956314087
1772883527545130000,3.7301298828125,18.860227584838867,2.2654049396514893,-0.6951149702072144
1772883527561727700,3.746727783203125,18.290138244628906,3.212364435195923,-0.2350948303937912
1772883527578336000,3.7633359375,15.62991714477539,4.977071285247803,0.47198426723480225
1772883527594941700,3.779941650390625,13.185648918151855,7.015157699584961,1.409970760345459
1772883527611520000,3.79652001953125,12.2135648727417,7.642675399780273,2.3718855381011963
1772883527628150800,3.81315087890625,13.95673656463623,6.993622303009033,2.1655044555664062
1772883527644764000,3.829763916015625,16.910078048706055,5.555535793304443,1.0671988725662231
1772883527661357800,3.84635791015625,18.009578704833984,4.194019794464111,-0.058624155819416046
1772883527677969000,3.862968994140625,17.070995330810547,4.551148891448975,0.10229317098855972
1772883527694574600,3.87957470703125,15.105889320373535,5.508277893066406,0.9379864931106567
1772883527711179800,3.8961796875,13.618151664733887,5.946762561798096,1.5284154415130615
1772883527727785200,3.91278515625,12.442079544067383,5.674578666687012,1.6767704486846924
1772883527744387300,3.92938720703125,11.679367065429688,5.1804609298706055,1.423729419708252
1772883527761000400,3.94600048828125,10.690533638000488,4.567300319671631,1.32921302318573
1772883527777567500,3.9625673828125,9.507881164550781,3.6921253204345703,0.908674418926239
1772883527794206700,3.979206787109375,8.353941917419434,3.033500909805298,0.3074777126312256
1772883527810795500,3.99579541015625,7.6767730712890625,2.648256540298462,0.275174617767334
1772883527827417900,4.01241796875,7.563114166259766,2.3718855381011963,1.2113664150238037
1772883527844023600,4.0290234375,7.109674453735352,1.9710876941680908,1.6360924243927002
1772883527860628200,4.045628173828125,6.260222434997559,1.532004714012146,1.5086746215820312
1772883527877234000,4.06223388671875,6.114858150482178,1.2562319040298462,1.0821540355682373
1772883527893839600,4.078839599609375,5.736194133758545,0.8590233325958252,0.6221339106559753
1772883527910423000,4.095423095703125,4.850849628448486,0.8644071817398071,0.5694918036460876
1772883527927036400,4.112036376953125,4.039682865142822,1.0875378847122192,0.8626125454902649
1772883527943642400,4.128642333984375,3.78544545173645,1.113858938217163,0.8356932997703552
1772883527960248000,4.145248046875,3.7812578678131104,0.9960124492645264,0.6149554252624512
1772883527976852700,4.161852783203125,3.696312665939331,0.8111668825149536,0.23629122972488403
1772883527993458200,4.178458251953125,3.294318675994873,0.7184450030326843,-0.029910283163189888
1772883528010053000,4.19505322265625,2.8636105060577393,0.7040880918502808,-0.06580262631177902
1772883528026686500,4.2116865234375,2.8079774379730225,0.9224331378936768,0.09391828626394272
1772883528043283700,4.22828369140625,3.339782238006592,1.1383854150772095,0.11605189740657806
1772883528059897600,4.244897705078125,4.087539196014404,1.3196417093276978,0.07537391036748886
1772883528076499000,4.2614990234375,4.307679176330566,1.5290136337280273,-0.07776673883199692
1772883528093104600,4.278104736328125,4.766502857208252,3.297907829284668,-1.6313068866729736
1772883528109693200,4.294693115234375,4.460819721221924,5.950351715087891,-3.3649067878723145
1772883528126299000,4.311298828125,4.07258415222168,3.7250266075134277,-0.3900300860404968
1772883528142916400,4.327916259765625,9.28893756866455,4.390829563140869,-0.5916253924369812
1772883528159530500,4.344530517578125,13.110873222351074,3.2380871772766113,0.2967100143432617
1772883528176114400,4.361114501953125,15.454045295715332,2.4233310222625732,0.6263213157653809
1772883528192736800,4.37773681640625,15.682559967041016,3.386442184448242,0.24047867953777313
1772883528209343700,4.39434375,14.757733345031738,4.814359188079834,0.5240281820297241
1772883528225936400,4.410936279296875,13.95972728729248,5.9539408683776855,1.1108678579330444
1772883528242550500,4.427550537109375,14.539388656616211,6.099903106689453,1.6007983684539795
1772883528259160600,4.44416064453125,15.620944023132324,5.819942951202393,1.5499508380889893
1772883528275750100,4.460750244140625,15.992429733276367,4.990231513977051,1.0923235416412354
1772883528292369700,4.47736962890625,15.535401344299316,5.045864582061768,0.1339980661869049
1772883528308942000,4.493942138671875,14.423934936523438,5.054837703704834,-0.04666004329919815
1772883528325580300,4.510580322265625,13.570295333862305,5.474180221557617,0.19561325013637543
1772883528342177300,4.52717724609375,13.436297416687012,5.890531063079834,0.6011967062950134
1772883528358800000,4.5437998046875,13.937593460083008,5.7032928466796875,1.3573286533355713
1772883528375383600,4.560383544921875,14.221741676330566,4.961517810821533,1.6995022296905518
1772883528391997400,4.57699755859375,13.840683937072754,4.256233215332031,1.428515076637268
1772883528408581400,4.593581298828125,12.777074813842773,3.706482172012329,1.0959128141403198
1772883528425199000,4.61019921875,11.642876625061035,3.3613176345825195,0.8321040868759155
1772883528441804300,4.62680419921875,10.398609161376953,2.8319056034088135,0.7345965504646301
1772883528458409700,4.64340966796875,9.181859016418457,2.538186550140381,1.1072787046432495
1772883528475015400,4.660015380859375,7.658228874206543,2.2743778228759766,1.5541383028030396
1772883528491620900,4.676620849609375,6.585047721862793,2.1003000736236572,1.5302101373672485
1772883528508216000,4.693216064453125,5.824130535125732,1.740180253982544,1.2592228651046753
1772883528524844800,4.7098447265625,4.937589645385742,1.2675977945327759,1.1174482107162476
1772883528541447700,4.72644775390625,4.23230504989624,1.017547845840454,0.8662018179893494
1772883528558059500,4.7430595703125,4.046861171722412,1.0109676122665405,0.27397820353507996
1772883528574644200,4.759644287109375,4.246063709259033,0.9684949517250061,-0.09092725813388824
1772883528591266800,4.776266845703125,4.125824451446533,0.8548358678817749,0.16689938306808472
1772883528607861000,4.792861083984375,3.3846476078033447,0.9349954724311829,0.49232324957847595
1772883528624478000,4.80947802734375,2.944368362426758,1.0947163105010986,0.251844584941864
1772883528641082400,4.826082275390625,3.279961585998535,1.1222338676452637,-0.33798620104789734
1772883528657688600,4.8426884765625,3.8847475051879883,0.6909275650978088,-0.5694918036460876
1772883528674264800,4.859264892578125,3.7543387413024902,0.23988047242164612,-0.605384111404419
1772883528690899200,4.875899169921875,3.2506494522094727,0.268594354391098,-0.7268198728561401
1772883528707490800,4.89249072265625,3.0867412090301514,0.6017948985099792,-0.6753742098808289
1772883528724110600,4.909110595703125,3.321835994720459,0.9176474809646606,-0.41156548261642456
1772883528740711200,4.925711181640625,4.221537113189697,1.3076776266098022,-0.7004988193511963
1772883528757325000,4.942324951171875,6.4941205978393555,3.820739507675171,-2.995215654373169
1772883528773909500,4.958909423828125,6.317051887512207,4.4380879402160645,-2.702693223953247
1772883528790531300,4.97553125,8.018946647644043,3.583850145339966,0.4953143000602722
1772883528807136800,4.99213671875,11.924033164978027,4.3172502517700195,1.9423737525939941
1772883528823743000,5.008742919921875,13.775480270385742,2.7912275791168213,2.5950162410736084
1772883528840340200,5.02534033203125,14.976078987121582,2.5764718055725098,1.1611171960830688
1772883528856960500,5.04196044921875,15.466607093811035,2.864806890487671,-0.6281159520149231
1772883528873543400,5.05854345703125,15.738192558288574,3.7674992084503174,-1.8185452222824097
1772883528890147000,5.07514697265625,15.418152809143066,4.695316314697266,-0.4707878530025482
1772883528906737000,5.09173681640625,16.063615798950195,4.980062007904053,2.435295343399048
1772883528923344600,5.1083447265625,17.736797332763672,4.339384078979492,4.004388809204102
1772883528939966700,5.124966796875,17.998212814331055,4.590630054473877,2.321038007736206
1772883528956572700,5.14157275390625,17.241483688354492,4.623531341552734,0.828514814376831
1772883528973177000,5.158177001953125,15.674184799194336,4.135395526885986,0.4660021960735321
1772883528989782800,5.17478271484375,15.278770446777344,4.3178486824035645,0.4695914387702942
1772883529006392600,5.191392578125,16.31964874267578,4.462614059448242,0.5312066078186035
1772883529023007500,5.208007568359375,16.68634796142578,4.308277130126953,0.5856433510780334
1772883529039605800,5.224605712890625,15.748960494995117,4.292125701904297,1.3465609550476074
1772883529056221400,5.241221435546875,14.233705520629883,4.06121826171875,2.4197418689727783
1772883529072807200,5.25780712890625,13.231112480163574,3.5497524738311768,2.7804598808288574
1772883529089425700,5.27442578125,12.146566390991211,2.6255247592926025,2.5645077228546143
1772883529106059300,5.291059326171875,10.758728981018066,1.7336000204086304,2.159522533416748
1772883529122640100,5.30764013671875,9.731609344482422,1.2197413444519043,1.6211373805999756
1772883529139241000,5.324240966796875,8.900702476501465,1.0121639966964722,1.2795618772506714
1772883529155854800,5.340854736328125,7.009175777435303,1.0875378847122192,1.26699960231781
1772883529172455700,5.35745556640625,4.793421745300293,1.552941918373108,1.1108678579330444
1772883529189045000,5.374044921875,2.9617161750793457,1.6923238039016724,0.9643075466156006
1772883529205654800,5.39065478515625,2.0650060176849365,1.7180466651916504,0.7208378314971924
1772883529222272500,5.4072724609375,1.551147222518921,1.719243049621582,0.503689169883728
1772883529238871600,5.42387158203125,1.1443674564361572,1.700698733329773,0.4295116662979126
1772883529255488500,5.440488525390625,1.2759727239608765,1.633699655532837,0.6047859191894531
1772883529272088300,5.45708837890625,1.8011972904205322,1.551147222518921,0.8883354067802429
1772883529288694000,5.473694091796875,2.3988046646118164,1.3980066776275635,1.0995019674301147
1772883529305299000,5.490298828125,2.466402053833008,1.0462616682052612,0.924227774143219
1772883529321909500,5.506909423828125,1.9154545068740845,0.5389832854270935,0.760917603969574
1772883529338501000,5.523501220703125,1.3010972738265991,0.10169496387243271,0.760917603969574
1772883529355119600,5.54011962890625,1.5798611640930176,0.22193430364131927,0.47796630859375
1772883529371704000,5.5567041015625,2.8492536544799805,0.5832505226135254,-0.46360939741134644
1772883529388305200,5.57330517578125,4.3788652420043945,2.389233350753784,-2.836092948913574
1772883529404910300,5.589910400390625,4.040879249572754,4.880760192871094,-4.834099769592285
1772883529421523700,5.606523681640625,2.8594231605529785,2.2600209712982178,-1.3316057920455933
1772883529438126800,5.623126953125,5.743372440338135,5.274379253387451,-0.9619147181510925
1772883529454735600,5.639735595703125,9.101698875427246,4.818546772003174,1.306481122970581
1772883529471339500,5.656339599609375,13.120444297790527,2.74755859375,1.8233308792114258
1772883529487942700,5.672942626953125,15.571293830871582,3.1998021602630615,-0.4875376224517822
1772883529504567000,5.689567138671875,15.518651008605957,2.93001127243042,0.19920247793197632
1772883529521145600,5.7061455078125,15.272789001464844,2.3874387741088867,1.301695466041565
1772883529537773800,5.72277392578125,15.178272247314453,2.2480568885803223,1.8083757162094116
1772883529554388700,5.739388671875,15.859628677368164,2.8588249683380127,1.7419748306274414
1772883529570980400,5.75598046875,17.32343864440918,3.8662030696868896,1.6689938306808472
1772883529587574800,5.77257470703125,18.452251434326172,4.31007194519043,2.134995937347412
1772883529604176100,5.789176025390625,18.11665916442871,3.9732820987701416,2.4735803604125977
1772883529620805400,5.805805419921875,17.36650848388672,4.133601188659668,2.369492530822754
1772883529637391600,5.8223916015625,16.9058895111084,4.622933387756348,2.193620204925537
1772883529654015500,5.839015380859375,17.159528732299805,4.560121536254883,1.9860427379608154
1772883529670583300,5.855583251953125,17.08056640625,3.8907296657562256,1.8813568353652954
1772883529687211300,5.872211181640625,15.896119117736816,3.3882367610931396,1.4919248819351196
1772883529703822300,5.888822265625,13.86521053314209,3.4432718753814697,1.389033555984497
1772883529720407800,5.90540771484375,11.59382438659668,3.7322051525115967,1.72941255569458
1772883529737023000,5.92202294921875,10.253843307495117,3.6436707973480225,1.4015958309173584
1772883529753634600,5.938634521484375,9.854840278625488,2.7876384258270264,0.8141579031944275
1772883529770236400,5.955236328125,9.915258407592773,1.9866410493850708,0.47796630859375
1772883529786842400,5.97184228515625,9.571290969848633,1.4051851034164429,0.35114672780036926
1772883529803447300,5.988447265625,8.57767105102539,1.1024930477142334,0.38763725757598877
1772883529820056600,6.005056640625,7.223931789398193,1.1012966632843018,0.47198426723480225
1772883529836664800,6.021664794921875,6.057430744171143,1.031306505203247,0.4588237404823303
1772883529853284600,6.03828466796875,5.350949764251709,0.9373882412910461,0.44327038526535034
1772883529869865700,6.05486572265625,4.826921463012695,0.7698906660079956,0.32542386651039124
1772883529886461700,6.071461669921875,4.148556232452393,0.7010970115661621,0.2997010350227356
1772883529903066600,6.088066650390625,3.410968780517578,0.7597211599349976,0.3332005441188812
1772883529919685400,6.104685302734375,3.0029923915863037,0.8452646136283875,0.4223332107067108
1772883529936287700,6.121287841796875,2.7828526496887207,0.7962117195129395,0.3032902777194977
1772883529952899600,6.137899658203125,2.8145575523376465,0.6299105882644653,0.22073788940906525
1772883529969501200,6.154501220703125,2.7379872798919678,0.4169493317604065,0.3774677813053131
1772883529986113300,6.17111328125,2.627917528152466,0.3978067636489868,0.2727817893028259
1772883530002739700,6.18773974609375,2.3437697887420654,0.4336991012096405,0.15972091257572174
1772883530019331600,6.20433154296875,2.465803623199463,0.5126622319221497,-0.012562318705022335
1772883530035932700,6.2209326171875,2.864208698272705,0.836291491985321,-0.3852444589138031
1772883530052546300,6.23754638671875,3.477369546890259,1.919043779373169,-1.490728497505188
1772883530069131300,6.25413134765625,3.7196428775787354,3.817150354385376,-2.152343988418579
1772883530085759200,6.27075927734375,4.7988057136535645,1.8346967697143555,0.5964110493659973
1772883530102352100,6.28735205078125,9.796216011047363,3.328416347503662,0.7178468108177185
1772883530118988500,6.303988525390625,14.977873802185059,2.2893331050872803,0.5952146053314209
1772883530135568000,6.32056787109375,17.571693420410156,0.50907301902771,0.5814558863639832
1772883530152178400,6.337178466796875,17.40419578552246,1.1330015659332275,-0.4941178858280182
1772883530168763400,6.353763427734375,17.410776138305664,1.7048860788345337,-0.7914260625839233
1772883530185368600,6.37036865234375,19.106090545654297,2.0961127281188965,-0.17108681797981262
1772883530201986800,6.38698681640625,19.779071807861328,2.662015199661255,1.1635099649429321
1772883530218600400,6.403600341796875,19.222143173217773,3.6987056732177734,2.451446771621704
1772883530235207700,6.420207763671875,17.991634368896484,5.423930644989014,2.217548370361328
1772883530251800300,6.43680029296875,15.554543495178223,5.986842155456543,2.1445672512054443
1772883530268436700,6.453436767578125,12.611371994018555,5.702694416046143,1.9674984216690063
1772883530285017900,6.470017822265625,11.423335075378418,6.073582172393799,0.7094719409942627
1772883530301616400,6.486616455078125,12.358928680419922,5.537590026855469,0.2273181527853012
1772883530318235000,6.50323486328125,13.48176097869873,4.357928276062012,0.21176479756832123
1772883530334827300,6.5198271484375,13.779667854309082,3.16749906539917,-0.11425728350877762
1772883530351446300,6.5364462890625,12.64606761932373,2.1828525066375732,0.02871387079358101
1772883530368027400,6.55302734375,10.574481010437012,1.9860427379608154,0.30628129839897156
1772883530384636400,6.569636474609375,9.203991889953613,1.714457392692566,0.6520441770553589
1772883530401241900,6.586241943359375,9.873982429504395,1.3232308626174927,0.24825534224510193
1772883530417847600,6.60284765625,10.062417030334473,0.5665007829666138,0.5527420043945312
1772883530434450000,6.619449951171875,8.93420124053955,0.45523449778556824,0.4001995921134949
1772883530451060200,6.636060302734375,7.023532867431641,0.28115665912628174,0.4384847581386566
1772883530467654100,6.652654052734375,5.015356063842773,0.47916272282600403,0.4462614357471466
1772883530484272600,6.669272705078125,3.5569307804107666,0.833898663520813,0.18963119387626648
1772883530500886800,6.68588671875,3.005385160446167,1.0133603811264038,-0.1986042857170105
1772883530517496600,6.70249658203125,3.4432718753814697,1.0390832424163818,-0.44446679949760437
1772883530534092000,6.719092041015625,3.920041799545288,0.890728235244751,-0.41994038224220276
1772883530550708200,6.735708251953125,3.8111681938171387,0.8374879360198975,-0.4336991012096405
1772883530567308800,6.752308837890625,3.7387852668762207,0.7902296781539917,-0.615553617477417
1772883530583914800,6.768914794921875,3.7262229919433594,0.6945167779922485,-0.6544370055198669
1772883530600515800,6.785515869140625,3.583251953125,0.7435696125030518,-0.4091726839542389
1772883530617130000,6.8021298828125,3.3367912769317627,1.0151549577713013,0.010169495828449726
1772883530633723000,6.818722900390625,3.960719585418701,1.3812568187713623,0.5688936114311218
1772883530650344200,6.83534423828125,5.453242778778076,1.7533408403396606,0.8979067206382751
1772883530666934300,6.851934326171875,7.073781967163086,1.937588095664978,0.3978067636489868
1772883530683547100,6.868547119140625,10.012765884399414,2.5902304649353027,-1.2113664150238037
1772883530700152600,6.885152587890625,11.685349464416504,5.569892883300781,-4.642673969268799
1772883530716757500,6.901757568359375,9.652647018432617,4.852046012878418,-1.4656038284301758
1772883530733359600,6.918359619140625,9.736993789672852,4.308875560760498,1.8640087842941284
1772883530749972700,6.93497265625,13.86221981048584,1.9202401638031006,1.5738791227340698
1772883530766590000,6.95158984375,18.427127838134766,-1.0995019674301147,-0.5928218364715576
1772883530783179500,6.968179443359375,19.566709518432617,-1.124626636505127,-1.292722463607788
1772883530799777300,6.98477734375,17.25823402404785,0.5688936114311218,0.40677985548973083
1772883530816397000,7.00139697265625,14.292329788208008,2.8552355766296387,1.3250255584716797
1772883530832989400,7.017989501953125,14.93839168548584,4.482355117797852,1.6109678745269775
1772883530849590800,7.0345908203125,15.347564697265625,3.965505361557007,2.695514678955078
1772883530866193700,7.051193603515625,14.91685676574707,4.214358806610107,2.7188446521759033
1772883530882798800,7.067798828125,13.702498435974121,4.221537113189697,1.4243277311325073
1772883530899403000,7.084403076171875,13.208979606628418,3.8913278579711914,-0.4259224236011505
1772883530916012000,7.101011962890625,13.974682807922363,3.999603033065796,-1.563111424446106
1772883530932608000,7.11760791015625,13.674383163452148,3.8913278579711914,-0.9499505758285522
1772883530949223200,7.13422314453125,13.291531562805176,4.782654285430908,0.12083754688501358
1772883530965811000,7.15081103515625,12.55992603302002,5.435894966125488,0.6556333899497986
1772883530982447600,7.167447509765625,11.903694152832031,5.8612189292907715,1.0307083129882812
1772883530999049500,7.184049560546875,10.51346492767334,5.622535228729248,1.4386845827102661
1772883531015654000,7.20065380859375,8.441878318786621,5.093122959136963,1.412961721420288
1772883531032253200,7.217253173828125,6.788437843322754,4.359723091125488,1.1491531133651733
1772883531048873700,7.233873779296875,6.4217376708984375,3.1896326541900635,0.9367900490760803
1772883531065454600,7.25045458984375,6.782455921173096,1.8293129205703735,0.9487541913986206
1772883531082077000,7.267076904296875,6.8512492179870605,1.0157532691955566,1.0713863372802734
1772883531098677500,7.283677490234375,6.063412666320801,0.7567301392555237,1.303490161895752
1772883531115297300,7.30029736328125,5.024927616119385,0.8763712644577026,1.6259230375289917
1772883531131883500,7.316883544921875,4.157529354095459,0.9625129103660583,1.669592022895813
1772883531148501500,7.33350146484375,3.538984775543213,0.9337990283966064,1.4434702396392822
1772883531165089300,7.35008935546875,3.178266763687134,0.9278169870376587,1.1060823202133179
1772883531181708500,7.36670849609375,2.950948476791382,1.0079765319824219,0.9403793215751648
1772883531198315500,7.3833154296875,2.6285157203674316,1.1371889114379883,1.1150553226470947
1772883531214918000,7.39991796875,1.9848463535308838,1.3304094076156616,1.2448660135269165
1772883531231518200,7.416518310546875,1.7575281858444214,1.409970760345459,1.155733346939087
1772883531248137700,7.4331376953125,1.9262222051620483,1.2789636850357056,0.9672985672950745
1772883531264718800,7.44971875,2.421536445617676,1.057627558708191,0.6329016089439392
1772883531281341400,7.466341552734375,3.0269205570220947,1.0713863372802734,0.2997010350227356
1772883531297939500,7.482939453125,3.723830223083496,1.1413763761520386,0.31046873331069946
1772883531314559500,7.4995595703125,3.957728624343872,1.3334003686904907,-0.014955141581594944
1772883531331160600,7.51616064453125,4.169493675231934,3.9912281036376953,-2.3736801147460938
1772883531347741400,7.532741455078125,1.1928220987319946,5.983851432800293,-1.8442680835723877
1772883531364354000,7.54935400390625,1.8197416067123413,4.715655326843262,1.9208383560180664
1772883531380959700,7.565959716796875,11.024930000305176,6.422934055328369,0.7914260625839233
1772883531397565000,7.58256494140625,16.291532516479492,2.9108686447143555,1.252044439315796
1772883531414168000,7.59916796875,16.736000061035156,1.3992030620574951,1.2095718383789062
1772883531430775000,7.615775146484375,14.099109649658203,3.435495138168335,-0.23808585107326508
1772883531447384300,7.63238427734375,12.069995880126953,6.110671043395996,-0.6185446381568909
1772883531463973600,7.6489736328125,13.449458122253418,6.634100914001465,0.4205385744571686
1772883531480609300,7.665609375,16.782062530517578,7.106683254241943,1.4189438819885254
1772883531497211000,7.6822109375,19.869401931762695,6.798607349395752,2.8342983722686768
1772883531513819100,7.698819091796875,21.272193908691406,5.888138294219971,2.4747767448425293
1772883531530422000,7.715422119140625,19.680965423583984,5.680561065673828,0.009571290574967861
1772883531547024600,7.732024658203125,15.491731643676758,6.363711833953857,-1.3004990816116333
1772883531563617300,7.7486171875,12.927224159240723,7.341179847717285,-1.3268201351165771
1772883531580238300,7.76523828125,13.615160942077637,7.3052873611450195,-0.14476576447486877
1772883531596843500,7.781843505859375,15.269797325134277,6.518647193908691,1.0929217338562012
1772883531613449000,7.798448974609375,15.972090721130371,5.709274768829346,1.5134602785110474
1772883531630054000,7.815053955078125,14.030913352966309,5.050052165985107,0.6251249313354492
1772883531646659000,7.8316591796875,10.593624114990234,4.8568315505981445,-0.1986042857170105
1772883531663255000,7.848255126953125,7.145566463470459,4.6540398597717285,-0.47676992416381836
1772883531679870700,7.86487060546875,5.295914649963379,4.067798614501953,0.33738797903060913
1772883531696471300,7.88147119140625,6.059225082397461,3.0382864475250244,1.4063814878463745
1772883531713085000,7.8980849609375,8.359326362609863,1.7916259765625,1.2406785488128662
1772883531729686800,7.914686767578125,9.592227935791016,1.0037890672683716,0.8644071817398071
1772883531746291700,7.931291748046875,8.639286041259766,0.8668000102043152,1.1700903177261353
1772883531762886700,7.94788671875,6.513861656188965,1.2442678213119507,1.3525429964065552
1772883531779502600,7.964502685546875,4.350151538848877,1.4757733345031738,1.2131611108779907
1772883531796102000,7.981101806640625,3.4618160724639893,1.4422738552093506,0.6203392744064331
1772883531812719600,7.9977197265625,3.7573297023773193,1.1042876243591309,0.18065811693668365
1772883531829301800,8.0143017578125,4.339384078979492,1.1030912399291992,-0.08554340898990631
1772883531845910300,8.03091015625,4.180859565734863,1.0701899528503418,-0.3290131092071533
1772883531862495000,8.047494873046874,3.9355950355529785,1.4715858697891235,-0.028115665540099144
1772883531879121700,8.06412158203125,3.7082769870758057,1.5882359743118286,0.6293123364448547
1772883531895726000,8.08072607421875,2.9485557079315186,1.6301103830337524,0.9876375198364258
1772883531912332000,8.09733203125,2.662015199661255,1.5188441276550293,0.6969096064567566
1772883531928937500,8.1139375,3.394218921661377,1.2370892763137817,-0.12263216078281403
1772883531945542700,8.130542724609375,3.793222188949585,1.0660024881362915,-0.3409772217273712
1772883531962136300,8.14713623046875,3.7812578678131104,1.7150555849075317,0.4289134442806244
1772883531978770700,8.163770751953125,5.3934221267700195,3.1136605739593506,0.0526420995593071
1772883531995368200,8.1803681640625,7.747959613800049,4.787439823150635,-0.2021935135126114
1772883532011982600,8.196982666015625,7.898707389831543,7.543971538543701,-0.6227321028709412
1772883532028583700,8.213583740234375,7.7222371101379395,6.300302028656006,3.219542980194092
1772883532045188400,8.230188232421876,12.178869247436523,3.6538400650024414,3.8727834224700928
1772883532061807600,8.2468076171875,16.989639282226562,2.5573291778564453,0.9439685344696045
1772883532078399500,8.2633994140625,18.303298950195312,1.9872392416000366,0.4061816334724426
1772883532095004400,8.28000439453125,16.700706481933594,3.589832067489624,0.6807580590248108
1772883532111610400,8.2966103515625,14.603994369506836,5.501697540283203,1.7443677186965942
1772883532128215800,8.3132158203125,13.634902000427246,6.684948444366455,2.624328136444092
1772883532144806700,8.329806640625,12.585648536682129,6.905087947845459,2.991028308868408
1772883532161426200,8.34642626953125,13.232309341430664,6.893722057342529,2.33180570602417
1772883532178017300,8.363017333984375,13.575678825378418,5.8582282066345215,0.6532405614852905
1772883532194636800,8.37963671875,12.495320320129395,5.758925914764404,-0.9391828775405884
1772883532211239200,8.3962392578125,10.362716674804688,6.6693949699401855,-1.0157532691955566
1772883532227851300,8.412851318359374,9.422935485839844,7.529016494750977,-0.2632105052471161
1772883532244453000,8.429453125,10.747961044311523,7.392027378082275,0.6849454641342163
1772883532261058300,8.446058349609375,12.64307689666748,6.777071952819824,1.186241865158081
1772883532277663700,8.462663818359376,13.600804328918457,6.410371780395508,1.6325032711029053
1772883532294269200,8.479269287109375,12.939786911010742,6.168696880340576,1.6109678745269775
1772883532310871300,8.495871337890625,10.89272689819336,5.733202934265137,1.2460623979568481
1772883532327466500,8.512466552734375,9.152546882629395,5.127819061279297,0.41934216022491455
1772883532344072000,8.529072021484374,7.861618995666504,4.649254322052002,-0.07477571070194244
1772883532360676600,8.545676513671875,7.17069149017334,4.144967079162598,0.389431893825531
1772883532377272000,8.56227197265625,7.17069149017334,3.3822548389434814,1.1778669357299805
1772883532393887700,8.5788876953125,7.228118896484375,2.4945175647735596,1.5391831398010254
1772883532410492000,8.595491943359375,7.134200572967529,1.9286150932312012,1.5882359743118286
1772883532427100000,8.612099853515625,6.220142364501953,1.7682958841323853,1.8837496042251587
1772883532443704000,8.6287041015625,5.042275428771973,1.789831280708313,1.7808582782745361
1772883532460312600,8.6453125,4.198207378387451,1.4500504732131958,1.256830096244812
1772883532476934000,8.661933837890626,4.11924409866333,1.1419745683670044,0.7579265832901001
1772883532493533200,8.678533203125,3.835096597671509,0.8500502705574036,0.3888336718082428
1772883532510132700,8.6951328125,2.906083106994629,0.7794619798660278,0.7854440212249756
1772883532526741200,8.7117412109375,1.8137595653533936,1.2191431522369385,1.1108678579330444
1772883532543350500,8.7283505859375,1.358525037765503,1.5014961957931519,1.1156535148620605
1772883532559965700,8.744965576171875,2.059622049331665,1.3004990816116333,0.8614161610603333
1772883532576564500,8.761564453125,3.376272678375244,1.1174482107162476,0.4462614357471466
1772883532593166000,8.778166015625,4.018745422363281,1.113858938217163,-0.035892341285943985
1772883532609768000,8.794767822265625,3.9421753883361816,1.4757733345031738,-0.49172505736351013
1772883532626363600,8.81136376953125,4.526622295379639,3.1280174255371094,-2.2480568885803223
1772883532642982700,8.827982666015625,3.0065815448760986,6.2638115882873535,-3.861417531967163
1772883532659571000,8.844571044921874,1.0151549577713013,5.368297576904297,0.022133609279990196
1772883532676179000,8.861178955078126,7.680362701416016,7.459624767303467,0.07657032459974289
1772883532692798200,8.877798095703126,12.692129135131836,4.4859442710876465,0.5234299302101135
1772883532709383400,8.894383544921874,15.17288875579834,3.1304101943969727,-0.10767702013254166
1772883532725996500,8.91099658203125,14.288740158081055,4.253242015838623,-1.1084750890731812
1772883532742615000,8.927614990234375,13.987244606018066,5.0841498374938965,-0.13459627330303192
1772883532759219500,8.944219482421875,15.39661693572998,5.288736343383789,0.09810572862625122
1772883532775824000,8.960823974609376,16.529619216918945,5.837889194488525,0.009571290574967861
1772883532792428300,8.97742822265625,17.71526336669922,5.9060845375061035,0.8691928386688232
1772883532809021000,8.99402099609375,17.133209228515625,5.941378593444824,0.4181457459926605
1772883532825625600,9.01062548828125,15.05264949798584,5.897709846496582,-1.0289137363433838
1772883532842229800,9.027229736328126,12.702299118041992,6.306882381439209,-2.1128623485565186
1772883532858841600,9.043841552734374,11.660224914550781,6.608976364135742,-1.8508483171463013
1772883532875428000,9.060427978515625,11.880962371826172,6.759125709533691,-0.5647061467170715
1772883532892043800,9.077043701171876,12.53420352935791,6.790830612182617,-0.0849452018737793
1772883532908654600,9.093654541015624,12.542577743530273,6.369095802307129,0.0023928226437419653
1772883532925259800,9.110259765625,11.859427452087402,6.09332275390625,0.052043892443180084
1772883532941865700,9.12686572265625,10.371091842651367,5.983253002166748,0.4570291340351105
1772883532958473700,9.1434736328125,9.346364974975586,5.898307800292969,0.11306086927652359
1772883532975087000,9.160087158203124,9.068798065185547,5.482554912567139,-0.36191442608833313
1772883532991694800,9.17669482421875,9.090332984924316,5.137988567352295,-0.2787638306617737
1772883533008296700,9.193296630859376,9.016754150390625,4.911866664886475,0.3128615617752075
1772883533024909800,9.209909912109374,9.169894218444824,4.542175769805908,0.6825526356697083
1772883533041511200,9.22651123046875,9.617352485656738,3.61017107963562,0.5300102233886719
1772883533058134800,9.243134765625,9.229715347290039,2.630310297012329,-0.08733802288770676
1772883533074697700,9.25969775390625,8.160721778869629,1.9830517768859863,-0.7704889178276062
