time,seconds_elapsed,z,y,x
1772884833460963000,0.160963134765625,0.17470745742321014,-0.1411098688840866,0.17638733983039856
1772884833477576400,0.177576416015625,0.16600263118743896,-0.1212567538022995,0.13041973114013672
1772884833494190000,0.194190185546875,0.13545936346054077,-0.12079860270023346,0.08277224004268646
1772884833510797000,0.210797119140625,0.07590000331401825,-0.128434419631958,0.062460970133543015
1772884833527399400,0.2273994140625,-0.004886921960860491,-0.10613783448934555,0.07116580009460449
1772884833544015400,0.244015380859375,-0.054825156927108765,-0.07742717117071152,0.03481931984424591
1772884833560644400,0.260644287109375,-0.06490442901849747,-0.03222314268350601,-0.029626963660120964
1772884833577232400,0.277232421875,-0.06750060617923737,-0.01878410577774048,-0.07757988572120667
1772884833593846500,0.293846435546875,-0.054367005825042725,-0.04612032696604729,-0.06475171446800232
1772884833610449700,0.31044970703125,-0.007788531947880983,-0.07987063378095627,-0.023976460099220276
1772884833627054800,0.327054931640625,0.02367102913558483,-0.09315694868564606,-0.021838432177901268
1772884833643666000,0.343666015625,0.027183502912521362,-0.09193521738052368,-0.014355333521962166
1772884833660273400,0.3602734375,0.025045474991202354,-0.09743300825357437,0.033139441162347794
1772884833676871700,0.37687158203125,0.023518312722444534,-0.0933096632361412,0.06994406878948212
1772884833693490400,0.393490478515625,0.020922135561704636,-0.09010262042284012,0.04382958263158798
1772884833710099200,0.41009912109375,0.039248090237379074,-0.07467827945947647,0.01878410577774048
1772884833726690300,0.426690185546875,0.06017022579908371,-0.08567385375499725,0.058795779943466187
1772884833743295000,0.443294921875,0.06276640295982361,-0.1281289905309677,0.13545936346054077
1772884833759912000,0.459911865234375,0.0884227454662323,-0.19226983189582825,0.19837848842144012
1772884833776520000,0.47652001953125,0.12660181522369385,-0.23426681756973267,0.21135938167572021
1772884833793128400,0.49312841796875,0.15806138515472412,-0.25595253705978394,0.16829337179660797
1772884833809732600,0.509732666015625,0.16462817788124084,-0.19593502581119537,0.1241583600640297
1772884833826349600,0.526349609375,0.18875735998153687,-0.08139779418706894,0.06887505948543549
1772884833842951000,0.542950927734375,0.20112738013267517,-0.007024950347840786,0.01466076634824276
1772884833859554800,0.559554931640625,0.1889100819826126,0.026114489883184433,0.001832595793530345
1772884833876166400,0.57616650390625,0.2295326143503189,0.08185594528913498,-0.004428773187100887
1772884833892764000,0.592763916015625,0.35246923565864563,0.13301590085029602,-0.048258353024721146
1772884833909380900,0.609380859375,0.4343251883983612,0.17379115521907806,-0.08735372871160507
1772884833925983200,0.625983154296875,0.44318273663520813,0.2252565622329712,-0.13408492505550385
1772884833942588400,0.64258837890625,0.4282165467739105,0.37858372926712036,-0.20631973445415497
1772884833959184400,0.659184326171875,0.39538252353668213,0.5129740834236145,-0.3243694305419922
1772884833975793000,0.67579296875,0.3839288055896759,0.5659666657447815,-0.4688390791416168
1772884833992398000,0.692398193359375,0.4109596014022827,0.5557346343994141,-0.5529857873916626
1772884834009011000,0.709010986328125,0.4918992519378662,0.4541783034801483,-0.5618433356285095
1772884834025611000,0.725611083984375,0.5725334286689758,0.3171917796134949,-0.49357911944389343
1772884834042222000,0.74222216796875,0.5797111392021179,0.1514945775270462,-0.42302417755126953
1772884834058840300,0.75884033203125,0.4951062798500061,-0.04688390716910362,-0.4723515510559082
1772884834075445000,0.775445068359375,0.3306308090686798,-0.20662516355514526,-0.6348416805267334
1772884834092064300,0.792064208984375,0.12965615093708038,-0.25014930963516235,-0.7944302558898926
1772884834108661500,0.80866162109375,-0.03726277872920036,-0.20952677726745605,-0.8594874143600464
1772884834125271800,0.825271728515625,-0.1621847152709961,-0.14492778480052948,-0.8362745046615601
1772884834141874700,0.841874755859375,-0.24816401302814484,-0.023518312722444534,-0.7673994898796082
1772884834158481000,0.85848095703125,-0.28619036078453064,0.0858265683054924,-0.6921103000640869
1772884834175091700,0.875091796875,-0.31062498688697815,0.1342376321554184,-0.5830708742141724
1772884834191692800,0.89169287109375,-0.3523165285587311,0.11988230794668198,-0.4141666293144226
1772884834208295700,0.908295654296875,-0.427452951669693,0.11652254313230515,-0.2321287989616394
1772884834224909600,0.92490966796875,-0.4743368625640869,0.11194105446338654,-0.2444988191127777
1772884834241517800,0.941517822265625,-0.3478877544403076,0.16325373947620392,-0.09392052888870239
1772884834258124000,0.9581240234375,0.04199698567390442,0.19975294172763824,0.598953366279602
1772884834274727700,0.974727783203125,0.47219884395599365,0.41920626163482666,1.5876387357711792
1772884834291349800,0.991349853515625,0.7005097270011902,0.27550023794174194,2.012495517730713
1772884834307953200,1.007953125,0.7333437204360962,-0.11148291081190109,1.7122552394866943
1772884834324545300,1.024545166015625,0.5607742667198181,-0.46960264444351196,1.1749993562698364
1772884834341155600,1.041155517578125,0.3969096839427948,-0.6669121384620667,0.6044511795043945
1772884834357768000,1.057767822265625,0.31673362851142883,-0.6571382880210876,-0.12217304855585098
1772884834374376200,1.074376220703125,0.2070833146572113,-0.6305656433105469,-1.070388674736023
1772884834390981000,1.090981201171875,-0.047189339995384216,-0.698066234588623,-2.2345449924468994
1772884834407586000,1.1075859375,-0.5297728776931763,-0.822682797908783,-3.1593949794769287
1772884834424195000,1.124195068359375,-1.1484266519546509,-0.9862419366836548,-3.7734673023223877
1772884834440786400,1.140786376953125,-1.5954272747039795,-1.1817188262939453,-4.101654529571533
1772884834457390800,1.157390869140625,-1.6847662925720215,-1.1447614431381226,-3.9619193077087402
1772884834474004500,1.17400439453125,-1.467145562171936,-1.1166616678237915,-3.417027473449707
1772884834490612500,1.190612548828125,-1.0946705341339111,-1.1968377828598022,-2.4689645767211914
1772884834507216600,1.207216552734375,-0.7162395119667053,-1.0661125183105469,-1.1962268352508545
1772884834523823000,1.223822998046875,-0.6085745096206665,-0.5099197626113892,0.126143679022789
1772884834540434700,1.2404345703125,-0.7948883771896362,0.21792617440223694,1.0642799139022827
1772884834557045200,1.257045166015625,-1.0112874507904053,0.8628471493721008,1.5457944869995117
1772884834573660000,1.273659912109375,-1.0772608518600464,0.5516113042831421,1.5247195959091187
1772884834590270700,1.290270751953125,-0.8068002462387085,0.010231993161141872,1.267392635345459
1772884834606870800,1.306870849609375,-0.4434881806373596,0.051770828664302826,1.1410962343215942
1772884834623481600,1.323481689453125,-0.256868839263916,0.3686571717262268,1.1841622591018677
1772884834640083700,1.340083740234375,-0.2220495194196701,0.5531384944915771,1.2773191928863525
1772884834656686800,1.356686767578125,-0.32559117674827576,0.4262312352657318,1.4205671548843384
1772884834673296000,1.3732958984375,-0.48426342010498047,0.14935655891895294,1.5793920755386353
1772884834689895400,1.3898955078125,-0.564592182636261,-0.13744467496871948,1.7073683738708496
1772884834706509300,1.40650927734375,-0.5962044596672058,-0.21349740028381348,1.7983872890472412
1772884834723125800,1.423125732421875,-0.6543893814086914,-0.06612616032361984,1.75303053855896
1772884834739726800,1.439726806640625,-0.7571674585342407,0.24404066801071167,1.4158328771591187
1772884834756342800,1.4563427734375,-0.7481572031974792,0.22907446324825287,0.6142250299453735
1772884834772927000,1.472927001953125,-0.7228062748908997,0.24984388053417206,0.06062837690114975
1772884834789555200,1.48955517578125,-0.8611672520637512,0.32971450686454773,0.4411974251270294
1772884834806155300,1.5061552734375,-0.685390830039978,0.6427829265594482,1.470963478088379
1772884834822765600,1.522765625,0.018478672951459885,1.7875443696975708,2.819448471069336
1772884834839371000,1.53937109375,1.0047205686569214,3.324939489364624,3.7191002368927
1772884834855977000,1.55597705078125,1.108262300491333,2.1644482612609863,1.9532415866851807
1772884834872586200,1.572586181640625,0.7971791625022888,1.5428929328918457,-0.4144720733165741
1772884834889191400,1.58919140625,0.4277583956718445,1.0273226499557495,-2.356412649154663
1772884834905798700,1.605798583984375,-0.07452555745840073,-0.02932153269648552,-3.182913303375244
1772884834922402300,1.62240234375,-0.48609602451324463,-1.1603385210037231,-2.5285239219665527
1772884834939005400,1.63900537109375,-0.4648684561252594,-2.4052820205688477,-1.7748689651489258
1772884834955602700,1.655602783203125,-0.5395467281341553,-3.2557590007781982,-2.1450533866882324
1772884834972218000,1.672218017578125,-0.9627236127853394,-3.1331279277801514,-3.5769214630126953
1772884834988816400,1.68881640625,-1.4561500549316406,-2.0424280166625977,-4.234975814819336
1772884835005430800,1.7054306640625,-1.6227635145187378,-0.6400340795516968,-3.5216381549835205
1772884835022035200,1.72203515625,-0.864679753780365,0.27290403842926025,-2.425745964050293
1772884835038657000,1.738656982421875,0.20876319706439972,0.8512406945228577,-1.1044443845748901
1772884835055260400,1.755260498046875,0.630871057510376,1.1771373748779297,0.10644327104091644
1772884835071868200,1.7718681640625,0.46670106053352356,1.3513866662979126,0.9338602423667908
1772884835088478200,1.788478271484375,-0.011759156361222267,0.7919867634773254,1.037249207496643
1772884835105084200,1.805084228515625,-0.09728029370307922,-0.2672535479068756,0.6339253783226013
1772884835121687600,1.8216875,0.15760323405265808,-0.32849279046058655,0.7385360598564148
1772884835138296800,1.838296875,0.2704605758190155,0.048716504126787186,1.0903944969177246
1772884835154900500,1.854900390625,0.22617286443710327,0.7757988572120667,1.4341589212417603
1772884835171510800,1.8715107421875,0.0682641938328743,1.226922869682312,1.5890132188796997
1772884835188121600,1.88812158203125,-0.06658431142568588,0.8573493957519531,1.4679092168807983
1772884835204724200,1.90472412109375,-0.1713477075099945,0.3507893681526184,1.3584115505218506
1772884835221343200,1.92134326171875,-0.30604347586631775,0.06490442901849747,1.3322970867156982
1772884835237952500,1.937952392578125,-0.39797869324684143,0.03573561832308769,1.2789990901947021
1772884835254533400,1.954533447265625,-0.40454551577568054,0.4207334518432617,1.0700831413269043
1772884835271153000,1.97115283203125,-0.304210901260376,0.7997753024101257,0.7571674585342407
1772884835287761400,1.987761474609375,-0.06979135423898697,1.003804326057434,1.0464121103286743
1772884835304369200,2.004369140625,0.28466320037841797,1.0031934976577759,1.879937767982483
1772884835320959200,2.020959228515625,0.712574303150177,1.1213958263397217,2.8377745151519775
1772884835337580000,2.037580078125,1.0251846313476562,0.9465357065200806,3.120757818222046
1772884835354187800,2.054187744140625,1.0929906368255615,0.5012149214744568,2.277916431427002
1772884835370782000,2.070781982421875,0.9387471675872803,0.18356500566005707,0.9726501703262329
1772884835387400200,2.087400146484375,0.7484626173973083,0.10430523753166199,-0.029932396486401558
1772884835404008700,2.1040087890625,0.46853363513946533,-0.04612032696604729,-0.7121161818504333
1772884835420599800,2.120599853515625,0.14905111491680145,-0.3321579694747925,-1.3776538372039795
1772884835437210600,2.137210693359375,-0.1007927656173706,-1.1102476119995117,-1.933541178703308
1772884835453814300,2.153814208984375,-0.2422080636024475,-2.0137171745300293,-2.264477491378784
1772884835470424600,2.170424560546875,-0.4005748927593231,-2.392453670501709,-2.448500633239746
1772884835487032800,2.18703271484375,-0.5572618246078491,-1.8194621801376343,-2.58762526512146
1772884835503639600,2.2036396484375,-0.6423248052597046,-0.7701483368873596,-2.4781274795532227
1772884835520245800,2.220245849609375,-0.5526803135871887,0.033139441162347794,-1.9126191139221191
1772884835536868400,2.236868408203125,-0.3124575614929199,0.5160284042358398,-0.9960157871246338
1772884835553471700,2.2534716796875,-0.2396118938922882,0.3260493278503418,-0.2770273983478546
1772884835570080500,2.27008056640625,-0.30741792917251587,-0.30115658044815063,-0.24098633229732513
1772884835586684400,2.286684326171875,-0.34574973583221436,-0.6765332818031311,-0.6659958362579346
1772884835603296000,2.3032958984375,-0.32788193225860596,-0.5858197808265686,-0.770301103591919
1772884835619902000,2.31990185546875,-0.2393064647912979,-0.2893974184989929,-0.3023782968521118
1772884835636504600,2.336504638671875,-0.14248432219028473,0.09392052888870239,0.3562871515750885
1772884835653118500,2.353118408203125,-0.06368270516395569,0.4815145432949066,0.7742717266082764
1772884835669723400,2.369723388671875,-0.0884227454662323,0.47540587186813354,0.7509061098098755
1772884835686344000,2.386343994140625,-0.14553864300251007,0.33475416898727417,0.5400048494338989
1772884835702939100,2.402939208984375,-0.1869247704744339,0.26374107599258423,0.36819902062416077
1772884835719541800,2.419541748046875,-0.20906862616539001,0.3604104816913605,0.2984076738357544
1772884835736150500,2.436150634765625,-0.20616702735424042,0.6449210047721863,0.30802878737449646
1772884835752754400,2.45275439453125,-0.22311852872371674,0.9039278626441956,0.36483925580978394
1772884835769379600,2.469379638671875,-0.16722436249256134,0.7449501752853394,0.765566885471344
1772884835785979400,2.4859794921875,0.05971207842230797,0.1241583600640297,1.528690218925476
1772884835802579200,2.5025791015625,0.29336804151535034,-0.3179553747177124,2.26432466506958
1772884835819186700,2.519186767578125,0.1950187236070633,-0.14446963369846344,2.615266799926758
1772884835835791000,2.535791015625,-0.22861631214618683,0.6559165716171265,2.2941043376922607
1772884835852395800,2.552395751953125,-0.27519479393959045,1.5905404090881348,1.624596118927002
1772884835868991500,2.568991455078125,0.04184427112340927,1.5948164463043213,0.4460843503475189
1772884835885618000,2.585617919921875,0.26542094349861145,1.0535898208618164,-0.8171849846839905
1772884835902218200,2.60221826171875,0.14996741712093353,0.3142901659011841,-1.0684033632278442
1772884835918802000,2.618802001953125,0.03130684420466423,-0.7531968355178833,-0.6983717083930969
1772884835935421400,2.63542138671875,0.010231993161141872,-2.0195205211639404,-0.6956228017807007
1772884835952024800,2.65202490234375,0.14553864300251007,-2.5889995098114014,-1.52273428440094
1772884835968636400,2.668636474609375,0.26343563199043274,-1.6862934827804565,-2.451555013656616
1772884835985244200,2.685244140625,0.25671613216400146,0.018478672951459885,-2.9152016639709473
1772884836001850600,2.7018505859375,0.16584990918636322,1.5932892560958862,-2.8484647274017334
1772884836018454000,2.7184541015625,0.03634648025035858,2.174680233001709,-2.436588764190674
1772884836035081700,2.735081787109375,0.04734205827116966,1.6815593242645264,-1.9226983785629272
1772884836051681500,2.751681640625,0.21410827338695526,0.7444919943809509,-1.3854423761367798
1772884836068296000,2.7682958984375,0.31383201479911804,0.11927144229412079,-0.7922922372817993
1772884836084899600,2.784899658203125,0.34284812211990356,-0.13087788224220276,-0.20616702735424042
1772884836101503000,2.8015029296875,0.39874228835105896,-0.14767667651176453,0.3859141170978546
1772884836118111000,2.818111083984375,0.45875978469848633,0.18616119027137756,0.8897252082824707
1772884836134718500,2.834718505859375,0.4612032473087311,0.5064072608947754,1.171334147453308
1772884836151350000,2.85135009765625,0.4011857509613037,0.3868304193019867,1.1308642625808716
1772884836167943200,2.867943115234375,0.2255619913339615,0.05803219974040985,0.9796751141548157
1772884836184527000,2.884527099609375,-0.004734205547720194,-0.17333301901817322,0.8382598161697388
1772884836201146400,2.901146484375,-0.22189679741859436,-0.04657847434282303,0.6785185933113098
1772884836217752300,2.91775244140625,-0.4576907753944397,0.26022860407829285,0.42470407485961914
1772884836234364200,2.9343642578125,-0.6635523438453674,0.47708576917648315,0.09040805697441101
1772884836250968300,2.95096826171875,-0.683863639831543,0.5919284224510193,-0.06612616032361984
1772884836267576000,2.967576171875,-0.46563202142715454,0.5769622325897217,0.46792277693748474
1772884836284186000,2.98418603515625,0.009162978269159794,0.24144448339939117,1.5149458646774292
1772884836300786200,3.0007861328125,0.5233588218688965,0.15882496535778046,2.490345001220703
1772884836317393700,3.0173935546875,0.7110471725463867,-0.403323769569397,2.3574817180633545
1772884836334003200,3.034003173828125,0.570853590965271,-0.8805622458457947,1.2341004610061646
1772884836350609000,3.05060888671875,0.4259257912635803,-0.8431467413902283,0.06811147183179855
1772884836367217400,3.067217529296875,0.3358231782913208,-0.8000807762145996,-0.9708175659179688
1772884836383825400,3.083825439453125,0.006108652334660292,-0.840397834777832,-1.7061465978622437
1772884836400415200,3.100415283203125,-0.3494149148464203,-1.404073715209961,-1.9141463041305542
1772884836417023500,3.1170234375,-0.5748242139816284,-2.2624921798706055,-1.9709566831588745
1772884836433621200,3.133621337890625,-0.7188356518745422,-2.509129047393799,-2.0025689601898193
1772884836450239200,3.1502392578125,-0.9091202020645142,-2.0106630325317383,-1.9562959671020508
1772884836466846200,3.16684619140625,-0.8982773423194885,-1.0461066961288452,-1.6533068418502808
1772884836483449300,3.183449462890625,-0.5829181671142578,0.005955935921519995,-1.2356276512145996
1772884836500065300,3.200065185546875,-0.18829920887947083,0.5966626405715942,-0.8414669036865234
1772884836516666000,3.216666015625,-0.010995574295520782,0.7098253965377808,-0.41462478041648865
1772884836533295400,3.23329541015625,-0.11560624837875366,0.4763221740722656,-0.08949175477027893
1772884836549895000,3.24989501953125,-0.2915354371070862,0.039095375686883926,-0.03222314268350601
1772884836566504000,3.26650390625,-0.35873061418533325,-0.096211276948452,0.05207626149058342
1772884836583108600,3.283108642578125,-0.34605515003204346,0.07712173461914062,0.37369680404663086
1772884836599715300,3.29971533203125,-0.251676470041275,0.39675697684288025,0.8170322775840759
1772884836616325000,3.3163251953125,-0.20097467303276062,0.6806566119194031,1.2056952714920044
1772884836632915500,3.33291552734375,-0.2583959996700287,0.7527387142181396,1.3264938592910767
1772884836649516500,3.3495166015625,-0.3240640163421631,0.5917757153511047,1.1940888166427612
1772884836666129000,3.36612890625,-0.34636059403419495,0.508698046207428,1.0250319242477417
1772884836682735600,3.382735595703125,-0.49205195903778076,0.6044511795043945,0.8101600408554077
1772884836699365000,3.399365234375,-0.6420193910598755,0.788627028465271,0.4381431043148041
1772884836715965700,3.415965576171875,-0.7338019013404846,1.1672108173370361,0.34345898032188416
1772884836732573000,3.432572998046875,-0.5636758804321289,1.580308437347412,1.077413558959961
1772884836749179600,3.4491796875,0.10445795953273773,1.9550741910934448,2.4026856422424316
1772884836765788400,3.465788330078125,0.8773552179336548,2.172389507293701,3.371976137161255
1772884836782393000,3.48239306640625,1.0914634466171265,1.310611367225647,2.7792842388153076
1772884836799001600,3.499001708984375,0.5864306092262268,0.07009678333997726,1.2596040964126587
1772884836815607800,3.51560791015625,-0.11133018881082535,-0.8946121335029602,-0.009162978269159794
1772884836832216300,3.53221630859375,-0.3885102868080139,-1.2040153741836548,-0.6688974499702454
1772884836848821800,3.54882177734375,-0.47280970215797424,-1.1620184183120728,-1.1261301040649414
1772884836865429800,3.5654296875,-0.4482223689556122,-1.1242974996566772,-1.5712981224060059
1772884836882050000,3.582050048828125,-0.375071257352829,-1.5010485649108887,-1.768760323524475
1772884836898631200,3.598631103515625,-0.3553708493709564,-2.129476308822632,-1.9459112882614136
1772884836915236400,3.615236328125,-0.41890084743499756,-2.378251075744629,-2.4883596897125244
1772884836931843800,3.63184375,-0.5021312236785889,-1.913688063621521,-3.0581440925598145
1772884836948446700,3.64844677734375,-0.5673410892486572,-1.3962851762771606,-3.014772653579712
1772884836965062100,3.665062255859375,-0.39385536313056946,-1.1006264686584473,-2.373364210128784
1772884836981664000,3.6816640625,-0.04795292019844055,-0.6777549982070923,-1.2324206829071045
1772884836998272300,3.698272216796875,0.02672535367310047,-0.28359419107437134,0.005803219974040985
1772884837014878200,3.714878173828125,-0.21502456068992615,0.047800205647945404,0.9388998746871948
1772884837031487200,3.7314873046875,-0.49953505396842957,0.14294247329235077,1.3300063610076904
1772884837048092200,3.748092041015625,-0.5639813542366028,-0.16004669666290283,1.1081095933914185
1772884837064717300,3.76471728515625,-0.3446807265281677,-0.10430523753166199,0.821461021900177
1772884837081320400,3.781320556640625,-0.22479841113090515,0.33078351616859436,0.799011766910553
1772884837097929200,3.79792919921875,-0.22632557153701782,0.6221662759780884,0.935081958770752
1772884837114535000,3.814534912109375,-0.31444287300109863,0.8516988754272461,1.0209085941314697
1772884837131142000,3.831141845703125,-0.5383250117301941,0.9613491892814636,1.098183035850525
1772884837147748000,3.847748046875,-0.7641924023628235,0.7053966522216797,1.292590856552124
1772884837164357400,3.864357421875,-0.9599747061729431,0.413097620010376,1.4701999425888062
1772884837180946000,3.88094580078125,-1.1899654865264893,0.5360342264175415,1.4075862169265747
1772884837197570300,3.8975703125,-1.335504174232483,0.07880161702632904,0.7548767328262329
1772884837214176800,3.9141767578125,-1.0288498401641846,-0.6548475623130798,0.21013765037059784
1772884837230785300,3.930785400390625,-0.6572909951210022,-0.35705074667930603,1.0309878587722778
1772884837247390500,3.947390380859375,-0.14446963369846344,0.5447390675544739,2.3154847621917725
1772884837263998500,3.96399853515625,0.1495092660188675,0.7698429226875305,2.18048357963562
1772884837280604000,3.98060400390625,0.13973543047904968,0.974177360534668,1.0569496154785156
1772884837297214000,3.9972138671875,0.03481931984424591,0.8901833891868591,-0.20845776796340942
1772884837313819100,4.013819091796875,0.05360342562198639,-0.09178250283002853,-1.4711161851882935
1772884837330426000,4.030426025390625,-0.004734205547720194,-0.8029823899269104,-2.2038490772247314
1772884837347033000,4.047033203125,0.09453139454126358,-1.164156436920166,-2.160935878753662
1772884837363641900,4.063641845703125,0.3833179473876953,-1.523956060409546,-1.6989690065383911
1772884837380229000,4.08022900390625,0.5161811113357544,-1.8988746404647827,-1.3353514671325684
1772884837396841000,4.096841064453125,0.3962988257408142,-2.032043218612671,-1.0896308422088623
1772884837413447200,4.113447265625,0.3094032406806946,-1.8083138465881348,-0.6487388610839844
1772884837430055700,4.1300556640625,0.41141775250434875,-1.1948524713516235,-0.1488984078168869
1772884837446660900,4.146660888671875,0.5277875661849976,-0.48029279708862305,0.15745051205158234
1772884837463269000,4.16326904296875,0.6966918110847473,0.10201449692249298,0.2993239760398865
1772884837479872000,4.1798720703125,0.7475463151931763,0.4108068645000458,0.25793784856796265
1772884837496487400,4.1964873046875,0.5769622325897217,0.5091561675071716,0.1010981947183609
1772884837513106200,4.213106201171875,0.3640756905078888,0.5148066878318787,0.020463986322283745
1772884837529707300,4.229707275390625,0.24617868661880493,0.4761694669723511,0.07666359096765518
1772884837546304000,4.246303955078125,0.19868391752243042,0.4127921760082245,0.2776382565498352
1772884837562925800,4.26292578125,0.17348572611808777,0.4308127164840698,0.5820018649101257
1772884837579531500,4.279531494140625,0.1333213448524475,0.46547931432724,0.8153523802757263
1772884837596139000,4.296138916015625,0.00733038317412138,0.3914119005203247,0.8837692737579346
1772884837612745700,4.312745849609375,-0.13973543047904968,0.29856038093566895,0.8309294581413269
1772884837629354000,4.32935400390625,-0.2981022298336029,0.27030786871910095,0.6441574096679688
1772884837645959400,4.34595947265625,-0.48166725039482117,0.3098613917827606,0.29306259751319885
1772884837662567200,4.362567138671875,-0.6572909951210022,0.3842342495918274,-0.1976149082183838
1772884837679196700,4.37919677734375,-0.7376197576522827,0.5578727126121521,-0.5313000679016113
1772884837695782400,4.395782470703125,-0.6762278079986572,0.8042041063308716,-0.009621127508580685
1772884837712387800,4.412387939453125,-0.5337435007095337,0.9984592199325562,1.2110403776168823
1772884837728995000,4.4289951171875,-0.15821409225463867,1.1400272846221924,2.2075142860412598
1772884837745601500,4.4456015625,0.3058907687664032,1.0395399332046509,2.0245602130889893
1772884837762210600,4.46221044921875,0.5765040516853333,0.9821186065673828,0.8906415104866028
1772884837778839300,4.47883935546875,0.5881105065345764,1.0548115968704224,-0.39843684434890747
1772884837795423500,4.495423583984375,0.4043927788734436,0.7139487266540527,-1.3237450122833252
1772884837812029400,4.512029541015625,0.380721777677536,-0.3874412775039673,-2.051438093185425
1772884837828638200,4.52863818359375,0.6076582074165344,-1.262963891029358,-2.222327709197998
1772884837845244000,4.545243896484375,0.9396634697914124,-1.9065104722976685,-1.2857186794281006
1772884837861847800,4.561847900390625,1.1406381130218506,-2.0900754928588867,-0.09010262042284012
1772884837878431500,4.578431396484375,1.0427470207214355,-1.7452419996261597,0.14065171778202057
1772884837895053000,4.595052978515625,0.7150177955627441,-0.6378960609436035,-0.6855435371398926
1772884837911658000,4.611657958984375,0.41111230850219727,0.8049677014350891,-1.5974125862121582
1772884837928266000,4.628265869140625,0.31261029839515686,1.5748106241226196,-1.8322902917861938
1772884837944871700,4.64487158203125,0.4311181604862213,1.5676329135894775,-1.3614659309387207
1772884837961481000,4.66148095703125,0.7255551815032959,0.9515753388404846,-0.6378960609436035
1772884837978086100,4.678086181640625,0.9538660645484924,0.1437060534954071,0.09560041129589081
1772884837994694000,4.69469384765625,0.8439103364944458,-0.11667526513338089,0.8068002462387085
1772884838011317200,4.711317138671875,0.6644686460494995,-0.35674530267715454,1.0867292881011963
1772884838027923200,4.727923095703125,0.5810855627059937,-0.30085113644599915,1.0651962757110596
1772884838044527600,4.744527587890625,0.4631885588169098,0.05696318298578262,0.9404270648956299
1772884838061136000,4.761135986328125,0.2984076738357544,0.3168863356113434,0.737772524356842
1772884838077742300,4.777742431640625,0.1062905490398407,0.39645153284072876,0.5418374538421631
1772884838094350800,4.794350830078125,-0.035582900047302246,0.2611449062824249,0.4628831446170807
1772884838110956000,4.8109560546875,-0.1797471046447754,-0.01817324012517929,0.6041457056999207
1772884838127563800,4.827563720703125,-0.20601430535316467,-0.23640485107898712,0.8808676600456238
1772884838144170500,4.84417041015625,-0.10583240538835526,-0.26450464129447937,1.1267409324645996
1772884838160802000,4.860802001953125,0.021838432177901268,0.06979135423898697,1.6491833925247192
1772884838177368000,4.8773681640625,0.18524488806724548,0.7950411438941956,2.4014639854431152
1772884838193992400,4.893992431640625,0.6070473194122314,1.3852896690368652,2.922226667404175
1772884838210598700,4.9105986328125,1.0309878587722778,1.3984233140945435,2.802955150604248
1772884838227207200,4.927207275390625,0.9246972799301147,0.8151996731758118,2.1426098346710205
1772884838243812400,4.943812255859375,0.3614795207977295,0.14034628868103027,1.394299864768982
1772884838260420400,4.96042041015625,-0.197004035115242,-0.03298672288656235,0.831845760345459
1772884838277012700,4.9770126953125,-0.06918048858642578,-0.04337143152952194,-0.2295326143503189
1772884838293635300,4.99363525390625,0.3452915847301483,-0.2638937830924988,-1.7200437784194946
1772884838310240800,5.01024072265625,0.5108360648155212,-0.7092145681381226,-2.1815524101257324
1772884838326848300,5.02684814453125,0.6710354685783386,-1.4549282789230347,-1.2962560653686523
1772884838343454500,5.043454345703125,0.9243918061256409,-1.7223345041275024,-0.11682797968387604
1772884838360046600,5.060046630859375,1.0166324377059937,-1.2252429723739624,0.251218318939209
1772884838376654600,5.076654541015625,0.9967793822288513,-0.17547103762626648,-0.23487769067287445
1772884838393262800,5.093262939453125,0.8611672520637512,0.8941540122032166,-0.9411906003952026
1772884838409868800,5.109868896484375,0.6747006773948669,1.5984816551208496,-1.5091426372528076
1772884838426477800,5.126477783203125,0.5105306506156921,1.7162258625030518,-1.8779524564743042
1772884838443082800,5.143082763671875,0.31612277030944824,1.520138144493103,-1.8863518238067627
1772884838459691000,5.15969091796875,0.1774563491344452,1.0253373384475708,-1.4191926717758179
1772884838476297000,5.176296875,0.28496864438056946,0.5366451144218445,-0.7481572031974792
1772884838492909600,5.19290966796875,0.3804163336753845,0.494189977645874,0.12049316614866257
1772884838509524700,5.209524658203125,0.34926220774650574,0.683863639831543,0.9662361145019531
1772884838526133000,5.226133056640625,0.27870726585388184,0.8135197758674622,1.5593862533569336
1772884838542738400,5.242738525390625,0.2710714638233185,0.8188648819923401,1.68201744556427
1772884838559347700,5.25934765625,0.3433062732219696,0.7295258045196533,1.2556334733963013
1772884838575953200,5.275953125,0.37690386176109314,0.7383833527565002,0.5271766781806946
1772884838592560600,5.292560546875,0.1820378452539444,0.8943067193031311,-0.10216721147298813
1772884838609166800,5.309166748046875,-0.06001751124858856,0.7988590002059937,-0.37950003147125244
1772884838625776400,5.3257763671875,-0.20234911143779755,0.6559165716171265,0.039095375686883926
1772884838642380800,5.342380859375,0.05971207842230797,0.48166725039482117,0.7692320346832275
1772884838658988800,5.35898876953125,0.6331618428230286,0.015271631069481373,1.5842790603637695
1772884838675595300,5.37559521484375,0.9051495790481567,-0.6073527932167053,2.1733057498931885
1772884838692203800,5.392203857421875,0.6148358583450317,-0.9946413636207581,2.1319196224212646
1772884838708809000,5.40880908203125,0.14737124741077423,-0.8581129312515259,1.2907582521438599
1772884838725417200,5.425417236328125,-0.13973543047904968,-0.3043636083602905,0.12003502249717712
1772884838742023200,5.442023193359375,-0.10445795953273773,-0.10949759185314178,-0.9970847964286804
1772884838758632200,5.458632080078125,0.04703662544488907,-0.09437867999076843,-1.7912095785140991
1772884838775220500,5.475220458984375,0.04245513305068016,-0.17501288652420044,-1.951256275177002
1772884838791844900,5.491844970703125,0.022602014243602753,-0.31291571259498596,-1.5827518701553345
1772884838808451800,5.508451904296875,0.06994406878948212,-0.4489859640598297,-1.1552989482879639
1772884838825060000,5.52506005859375,0.20830504596233368,-0.6583600044250488,-0.9411906003952026
1772884838841662000,5.541661865234375,0.41401392221450806,-0.7812966704368591,-0.8631525635719299
1772884838858259700,5.558259765625,0.46441030502319336,-0.5870414972305298,-0.7831292152404785
1772884838874865400,5.574865478515625,0.31413745880126953,-0.11026117950677872,-0.8168795704841614
1772884838891478000,5.59147802734375,0.08918632566928864,0.5647448897361755,-0.9149234294891357
1772884838908076300,5.608076171875,-0.09972374886274338,1.0297660827636719,-0.8582656979560852
1772884838924688000,5.62468798828125,-0.12950342893600464,0.9789115786552429,-0.599564254283905
1772884838941293600,5.64129345703125,-0.021074850112199783,0.5958990454673767,-0.22372940182685852
1772884838957902800,5.65790283203125,0.11560624837875366,0.21074850857257843,0.19547687470912933
1772884838974507800,5.6745078125,0.16004669666290283,-0.015882495790719986,0.5598580241203308
1772884838991133000,5.6911328125,0.1290452778339386,0.020005837082862854,0.7716755270957947
1772884839007735300,5.7077353515625,0.10384709388017654,0.28069257736206055,0.8347473740577698
1772884839024344800,5.7243447265625,0.06108652427792549,0.6007859706878662,0.8848382830619812
1772884839040949500,5.740949462890625,0.041691552847623825,0.6044511795043945,0.927446186542511
1772884839057557500,5.7575576171875,0.15164729952812195,0.34315356612205505,0.8802568316459656
1772884839074164000,5.7741640625,0.2968805134296417,0.17318029701709747,0.88361656665802
1772884839090772500,5.7907724609375,0.3556762933731079,0.12293662875890732,1.1995866298675537
1772884839107378000,5.8073779296875,0.3741549551486969,0.21991148591041565,1.589624047279358
1772884839123986200,5.823986083984375,0.3859141170978546,0.3680463135242462,1.5874860286712646
1772884839140591400,5.84059130859375,0.2591595947742462,0.5285511612892151,1.3759739398956299
1772884839157200400,5.857200439453125,0.052381694316864014,0.5920811295509338,1.1711814403533936
1772884839173806000,5.87380615234375,-0.04153883829712868,0.33460143208503723,0.7414376735687256
1772884839190414300,5.890414306640625,0.009621127508580685,-0.08750644326210022,-0.02275473065674305
1772884839207019800,5.907019775390625,0.10812314599752426,-0.6459900140762329,-1.1435397863388062
1772884839223629300,5.92362939453125,0.03573561832308769,-0.788016140460968,-2.2321016788482666
1772884839240233700,5.940233642578125,-0.06948592513799667,-0.5862779021263123,-2.551278591156006
1772884839256841700,5.956841796875,0.007024950347840786,-0.5027421116828918,-2.0862574577331543
1772884839273448400,5.973448486328125,0.23411411046981812,-0.8694139719009399,-1.3364204168319702
1772884839290056700,5.990056640625,0.4109596014022827,-1.271515965461731,-0.7360926270484924
1772884839306662100,6.006662109375,0.4433354437351227,-1.098793864250183,-0.6453791260719299
1772884839323267300,6.023267333984375,0.30482175946235657,-0.42409318685531616,-1.0163270235061646
1772884839339859000,6.03985888671875,0.14584407210350037,0.30894508957862854,-1.4654656648635864
1772884839356471300,6.05647119140625,-0.010079276748001575,0.940732479095459,-1.5806138515472412
1772884839373076200,6.073076171875,-0.030543262138962746,1.060920238494873,-1.4063645601272583
1772884839389697300,6.089697265625,0.06780604273080826,0.570853590965271,-0.9149234294891357
1772884839406290400,6.10629052734375,0.07788532227277756,0.029168816283345222,-0.16920967400074005
1772884839422899500,6.1228994140625,0.05253441259264946,-0.1791362315416336,0.5876523852348328
1772884839439504400,6.13950439453125,-0.036041051149368286,-0.10995574295520782,1.0716103315353394
1772884839456112400,6.1561123046875,-0.14446963369846344,0.12232576310634613,1.1888965368270874
1772884839530854700,6.230854736328125,0.00015271631127689034,0.4112650156021118,0.4271475374698639
1772884839547459600,6.24745947265625,0.16249015927314758,0.3355177342891693,0.5542075037956238
1772884839564074800,6.26407470703125,0.289702832698822,0.5022839307785034,1.1107057332992554
1772884839580684500,6.2806845703125,0.35781431198120117,0.3442225754261017,1.8272507190704346
1772884839597285400,6.297285400390625,0.42241331934928894,-0.12461651116609573,2.417957305908203
1772884839613892900,6.313892822265625,0.48456886410713196,-0.4570799171924591,2.595871925354004
1772884839630497800,6.330497802734375,0.471129834651947,-0.5955936312675476,2.1642956733703613
1772884839647102000,6.34710205078125,0.3556762933731079,-0.5303837656974792,1.1788171529769897
1772884839663716900,6.363716796875,0.1443169116973877,-0.32360586524009705,-0.07269296050071716
1772884839680317200,6.380317138671875,-0.13057245314121246,-0.18707747757434845,-1.2299771308898926
1772884839696928500,6.396928466796875,-0.34513887763023376,0.058337632566690445,-1.9086484909057617
1772884839713526500,6.413526611328125,-0.23548854887485504,-0.06276640295982361,-1.7750216722488403
1772884839730145300,6.430145263671875,0.048105638474226,-0.679129421710968,-1.00502610206604
1772884839746748200,6.446748046875,0.15012013912200928,-1.2735012769699097,-0.1895209401845932
1772884839763355000,6.46335498046875,-0.012828170321881771,-1.0852020978927612,0.06490442901849747
1772884839779945700,6.47994580078125,-0.10766500234603882,-0.5992587804794312,-0.7313584089279175
1772884839796574000,6.496573974609375,0.025961773470044136,0.09697485715150833,-1.8771889209747314
1772884839813196500,6.513196533203125,0.13255776464939117,0.6533203721046448,-2.302809238433838
1772884839829766100,6.52976611328125,0.19074267148971558,0.4021020531654358,-2.0760254859924316
1772884839846371800,6.546371826171875,0.22067506611347198,-0.12324206531047821,-1.5581644773483276
1772884839862985000,6.56298486328125,0.10231992602348328,-0.4069889783859253,-0.6979135274887085
1772884839879577300,6.579577392578125,-0.10674870014190674,-0.2669481039047241,0.2889392673969269
1772884839896188000,6.59618798828125,-0.25702154636383057,0.10262536257505417,1.058171272277832
1772884839912795000,6.612794921875,-0.1889100819826126,0.5012149214744568,1.4495831727981567
1772884839929411800,6.629411865234375,-0.06704246252775192,0.6736316680908203,1.5308283567428589
1772884839946020400,6.646020263671875,-0.02519819140434265,0.6433938145637512,1.45004141330719
1772884839962624000,6.6626240234375,-0.05192354694008827,0.5769622325897217,1.3058772087097168
1772884839979229000,6.67922900390625,-0.11316278576850891,0.47510045766830444,1.0793988704681396
1772884839995844000,6.695843994140625,-0.09941831976175308,0.4072943925857544,0.8266534209251404
1772884840012443600,6.712443603515625,-0.044135015457868576,0.5351179838180542,0.7698429226875305
1772884840029067800,6.72906787109375,0.11026117950677872,0.5448917746543884,0.8669704794883728
1772884840045670700,6.745670654296875,0.3191770911216736,0.013897184282541275,1.1386528015136719
1772884840062285600,6.76228564453125,0.3072652220726013,-0.6762278079986572,1.676366925239563
1772884840078888400,6.778888427734375,0.013286318629980087,-0.8541423082351685,2.1032090187072754
1772884840095483600,6.795483642578125,-0.2788599729537964,-0.536797821521759,1.781130313873291
1772884840112097300,6.81209716796875,-0.42012256383895874,-0.017867809161543846,0.8512406945228577
1772884840128704300,6.828704345703125,-0.3139847218990326,0.3533855378627777,-0.1359175145626068
1772884840145313300,6.845313232421875,-0.19654589891433716,0.08735372871160507,-0.8970556259155273
1772884840161927400,6.861927490234375,-0.24785856902599335,-0.28130343556404114,-1.3442089557647705
1772884840178549000,6.878549072265625,-0.31413745880126953,-0.44745880365371704,-1.41690194606781
1772884840195143000,6.895142822265625,-0.22510384023189545,-0.48976120352745056,-1.1911872625350952
1772884840211749600,6.91174951171875,-0.05161811411380768,-0.5531384944915771,-0.7206682562828064
1772884840228352000,6.92835205078125,0.02474004216492176,-0.6441574096679688,-0.19349156320095062
1772884840244956000,6.944955810546875,0.0010690141934901476,-0.7506006956100464,0.03695734590291977
1772884840261569000,6.961569091796875,-0.08994990587234497,-0.6931793093681335,-0.154396191239357
1772884840278156000,6.978156005859375,-0.1915062516927719,-0.3712533414363861,-0.6898195743560791
1772884840294762500,6.994762451171875,-0.17180584371089935,0.07009678333997726,-1.1905763149261475
1772884840311366400,7.011366455078125,-0.05146539583802223,0.2921462953090668,-1.3237450122833252
1772884840327980300,7.027980224609375,0.08720101416110992,0.18585574626922607,-1.0209085941314697
1772884840344585700,7.044585693359375,0.1837177276611328,-0.07177666574716568,-0.43799036741256714
1772884840361195500,7.061195556640625,0.17669276893138885,-0.13316862285137177,0.1817324161529541
1772884840377801200,7.07780126953125,0.052381694316864014,-0.009773843921720982,0.6218608021736145
1772884840394412500,7.09441259765625,0.04444044828414917,0.11148291081190109,0.7096726894378662
1772884840411026400,7.1110263671875,0.06398813426494598,0.24205535650253296,0.6035348773002625
1772884840427622100,7.1276220703125,0.03298672288656235,0.3446807265281677,0.5157229900360107
1772884840444229400,7.1442294921875,-0.029932396486401558,0.5132794976234436,0.37858372926712036
1772884840460836400,7.16083642578125,-0.04245513305068016,0.6916521787643433,0.26481008529663086
1772884840477460200,7.177460205078125,0.0032070425804704428,0.6533203721046448,0.2793181240558624
1772884840494064000,7.194064208984375,0.032070424407720566,0.27519479393959045,0.5441282391548157
1772884840510676200,7.21067626953125,0.0809396430850029,-0.07223481684923172,0.9008735418319702
1772884840527277600,7.227277587890625,0.08888089656829834,-0.16203200817108154,1.2368494272232056
1772884840543883800,7.2438837890625,0.061391957104206085,-0.2015855312347412,1.332755208015442
1772884840560493300,7.260493408203125,0.03222314268350601,-0.1437060534954071,1.1032226085662842
1772884840577085200,7.277085205078125,-0.03130684420466423,0.07590000331401825,0.7235698699951172
1772884840593727000,7.29372705078125,-0.07666359096765518,0.15531249344348907,0.23365595936775208
1772884840610303200,7.31030322265625,-0.11301007121801376,0.005039638374000788,-0.3605632185935974
1772884840626920200,7.326920166015625,-0.21578814089298248,-0.242513507604599,-0.9624181985855103
1772884840643523000,7.343523193359375,-0.35552358627319336,-0.07727445662021637,-1.3936890363693237
1772884840660138500,7.360138427734375,-0.355981707572937,0.206777885556221,-1.4550809860229492
1772884840676763000,7.376762939453125,-0.18127426505088806,0.043676864355802536,-1.1788171529769897
1772884840693332000,7.39333203125,0.010231993161141872,-0.5062545537948608,-0.7015787363052368
1772884840709934600,7.4099345703125,0.0607810914516449,-0.93095862865448,-0.2379320114850998
1772884840726567000,7.42656689453125,0.027947084978222847,-0.9607383012771606,-0.10583240538835526
1772884840743165400,7.44316552734375,-0.005039638374000788,-0.5229006409645081,-0.3462078869342804
1772884840759780000,7.459780029296875,0.01771509274840355,-0.11774427443742752,-0.603076696395874
1772884840776393000,7.47639306640625,0.10430523753166199,0.2054034322500229,-0.479834645986557
1772884840792976100,7.49297607421875,0.16859880089759827,0.3949243724346161,-0.03573561832308769
1772884840809580000,7.509580078125,0.12767083942890167,0.3640756905078888,0.5422956347465515
1772884840826190800,7.52619091796875,0.019089538604021072,0.18829920887947083,0.9408851861953735
1772884840842798000,7.542798095703125,-0.04352414980530739,0.016798794269561768,0.9950994849205017
1772884840859404800,7.55940478515625,-0.035124752670526505,0.10506882518529892,0.8431467413902283
1772884840876011800,7.57601171875,-0.004123340360820293,0.5093088746070862,0.6039929986000061
1772884840892629800,7.592629638671875,0.02779436856508255,0.8715519905090332,0.3196352422237396
1772884840909215500,7.609215576171875,0.10430523753166199,1.067945122718811,0.0933096632361412
1772884840925832700,7.625832763671875,0.2226603776216507,0.9805914163589478,0.10949759185314178
1772884840942438400,7.6424384765625,0.3295617997646332,0.7947356700897217,0.49724429845809937
1772884840959048200,7.659048095703125,0.3723223805427551,0.3484986126422882,0.8943067193031311
1772884840975654400,7.675654296875,0.21288654208183289,-0.5288565754890442,0.7968736886978149
1772884840992269800,7.692269775390625,-0.07437284290790558,-0.8938485980033875,0.35873061418533325
1772884841008877600,7.708877685546875,-0.20631973445415497,-0.4766276180744171,-0.05421429127454758
1772884841025492700,7.72549267578125,-0.09728029370307922,0.024587325751781464,-0.17440202832221985
1772884841042092000,7.742092041015625,0.10155634582042694,0.08445212244987488,-0.13179416954517365
1772884841058706700,7.758706787109375,0.1670716404914856,-0.17027868330478668,-0.27641651034355164
1772884841075303000,7.775302978515625,0.10170906037092209,-0.33536502718925476,-0.7701483368873596
1772884841091916500,7.79191650390625,0.0012217304902151227,-0.25473082065582275,-1.306488037109375
1772884841108520400,7.8085205078125,-0.003817907767370343,-0.1713477075099945,-1.565953016281128
1772884841125139000,7.825138916015625,0.053297992795705795,-0.23197607696056366,-1.4190399646759033
1772884841141734100,7.841734130859375,0.12736541032791138,-0.35750889778137207,-1.0769554376602173
1772884841158348800,7.858348876953125,0.11056660860776901,-0.40515637397766113,-0.7443392872810364
1772884841174949000,7.87494921875,-0.0377209298312664,-0.30634891986846924,-0.6301075220108032
1772884841191577000,7.8915771484375,-0.21502456068992615,-0.1560760736465454,-0.6337726712226868
1772884841208184600,7.9081845703125,-0.3306308090686798,-0.06536258012056351,-0.545655369758606
1772884841224776000,7.92477587890625,-0.3550654351711273,-0.06627888232469559,-0.31261029839515686
1772884841241376300,7.941376220703125,-0.265573650598526,-0.006108652334660292,0.05207626149058342
1772884841258008300,7.95800830078125,-0.15454891324043274,0.08048149943351746,0.4340197443962097
1772884841274564600,7.974564697265625,-0.1336267739534378,0.20387627184391022,0.7095199823379517
1772884841291183600,7.99118359375,-0.13545936346054077,0.42668938636779785,0.8755226135253906
1772884841307794200,8.007794189453126,-0.11148291081190109,0.5291619896888733,1.0378600358963013
1772884841324401400,8.0244013671875,-0.03329215571284294,0.6603453159332275,1.1279627084732056
1772884841341005300,8.04100537109375,0.12049316614866257,0.6673702597618103,0.988074541091919
1772884841357618400,8.057618408203124,0.22999076545238495,0.4775438904762268,0.7742717266082764
1772884841374222300,8.074222412109375,0.27580565214157104,0.09712757170200348,0.6937901973724365
1772884841390839000,8.090839111328124,0.18005253374576569,-0.12095131725072861,0.6461427211761475
1772884841407450000,8.1074501953125,-0.0656680166721344,-0.07849618047475815,0.44623705744743347
1772884841424043300,8.124043212890625,-0.15103642642498016,0.1598939746618271,0.2620611786842346
1772884841440646000,8.14064599609375,0.00427605677396059,0.2217440903186798,0.2724458873271942
1772884841457262000,8.157261962890624,0.16783522069454193,-0.09147707372903824,0.22403483092784882
1772884841473894400,8.173894287109375,0.1722639948129654,-0.42241331934928894,-0.060475658625364304
1772884841490477000,8.19047705078125,0.09269879758358002,-0.5248859524726868,-0.5300782918930054
1772884841507084300,8.207084228515624,0.02672535367310047,-0.33505958318710327,-1.1655309200286865
1772884841523704800,8.223704833984375,-0.11392636597156525,0.1420261710882187,-1.6850718259811401
1772884841540300000,8.240300048828125,-0.12140946835279465,0.28817567229270935,-1.774105429649353
1772884841556919300,8.256919189453125,0.009621127508580685,-0.14584407210350037,-1.3959797620773315
1772884841573503500,8.27350341796875,0.11438451707363129,-0.7024950385093689,-0.7790058851242065
1772884841590115300,8.290115234375,0.09269879758358002,-1.108567714691162,-0.32849279046058655
1772884841606726400,8.306726318359376,-0.0029016099870204926,-0.9621127843856812,-0.3599523603916168
1772884841623341000,8.323341064453125,-0.039095375686883926,-0.19394971430301666,-0.9456194043159485
1772884841639940400,8.3399404296875,0.030543262138962746,0.5467243790626526,-1.3883439302444458
1772884841656563500,8.3565634765625,0.16111570596694946,0.6795876026153564,-1.249066710472107
1772884841673146000,8.37314599609375,0.3194825351238251,0.4075998365879059,-0.6188064813613892
1772884841689781200,8.38978125,0.3972151279449463,0.15851953625679016,0.2863430976867676
1772884841706382300,8.40638232421875,0.33246341347694397,0.00733038317412138,0.9795224070549011
1772884841722988000,8.422988037109375,0.22999076545238495,-0.005497787147760391,1.1957687139511108
1772884841739591200,8.439591064453126,0.15775595605373383,0.19654589891433716,1.0367910861968994
1772884841756200400,8.456200439453125,0.17791450023651123,0.5115996599197388,0.7974845767021179
1772884841772775000,8.47277490234375,0.24404066801071167,0.6902777552604675,0.6296493411064148
1772884841789400800,8.48940087890625,0.2984076738357544,0.7463245987892151,0.7006624341011047
1772884841806004700,8.506004638671875,0.39553526043891907,0.679129421710968,1.1494957208633423
1772884841822611700,8.52261181640625,0.46792277693748474,0.4034765064716339,1.649794340133667
1772884841839215900,8.5392158203125,0.42210787534713745,-0.10980302840471268,1.727832317352295
1772884841855829200,8.555829345703126,0.266642689704895,-0.3839288055896759,1.4010194540023804
1772884841872432600,8.5724326171875,0.03420845419168472,-0.1488984078168869,0.8713992834091187
1772884841889040000,8.589039794921876,-0.1492038369178772,0.4046982228755951,0.4389066696166992
1772884841905647000,8.605647216796875,-0.1469130963087082,0.5949827432632446,0.28298333287239075
1772884841922253800,8.62225390625,-0.017867809161543846,0.294895201921463,0.21319197118282318
1772884841938858000,8.63885791015625,0.06444628536701202,-0.08857546001672745,0.04581489413976669
1772884841955474400,8.655474365234374,0.06490442901849747,-0.3026837408542633,-0.28298333287239075
1772884841972072000,8.672072021484375,-0.003512475173920393,-0.2643519341945648,-0.7603744864463806
1772884841988695600,8.688695556640624,-0.039095375686883926,-0.010079276748001575,-1.2712105512619019
1772884842005299000,8.705298828125,0.027183502912521362,0.2496911734342575,-1.5170838832855225
1772884842021913300,8.721913330078126,0.1638645976781845,0.25045475363731384,-1.2637274265289307
1772884842038514000,8.738513916015625,0.2099849283695221,-0.10873401165008545,-0.7580837607383728
1772884842055122700,8.755122802734375,0.19425514340400696,-0.5748242139816284,-0.47479501366615295
1772884842071722800,8.77172265625,0.13759739696979523,-0.7925976514816284,-0.35674530267715454
1772884842088337400,8.78833740234375,0.025961773470044136,-0.6614143252372742,-0.3572034537792206
1772884842104941800,8.80494189453125,-0.07681630551815033,-0.17592918872833252,-0.40194934606552124
1772884842121555000,8.821554931640625,-0.16798794269561768,0.24587325751781464,-0.36392298340797424
1772884842138153200,8.8381533203125,-0.20326541364192963,0.3139847218990326,-0.16691893339157104
1772884842154771500,8.854771484375,-0.2116648107767105,0.2119702398777008,0.22571471333503723
1772884842171377200,8.871377197265625,-0.22708915174007416,0.08384125679731369,0.6493497490882874
1772884842187979500,8.8879794921875,-0.22250767052173615,0.0809396430850029,0.8408560156822205
1772884842204584200,8.904584228515626,-0.17821992933750153,0.2799290120601654,0.8364272117614746
1772884842221196500,8.921196533203124,-0.06169738993048668,0.43218716979026794,0.7367035150527954
1772884842237796400,8.93779638671875,0.09346238523721695,0.4260784983634949,0.6198754906654358
1772884842254414800,8.954414794921876,0.23151792585849762,0.2538145184516907,0.5497786998748779
1772884842270992400,8.970992431640624,0.3399465084075928,-0.04352414980530739,0.49357911944389343
1772884842287608000,8.987608154296876,0.30695977807044983,-0.3724750876426697,0.5801692605018616
1772884842304215300,9.00421533203125,0.166460782289505,-0.4749477207660675,0.7160868048667908
1772884842320819200,9.020819091796875,0.10506882518529892,-0.08765916526317596,0.6117815375328064
1772884842337429800,9.0374296875,0.05772676691412926,0.6702718734741211,0.35185837745666504
1772884842354039000,9.0540390625,0.03680463135242462,1.0183123350143433,0.001832595793530345
1772884842370643200,9.070643310546876,0.0731511116027832,0.7168503403663635,-0.34315356612205505
1772884842387250400,9.08725048828125,0.12492194026708603,0.18860463798046112,-0.5855143666267395
1772884842403857200,9.103857177734374,0.10002918541431427,0.1791362315416336,-0.7727445363998413
1772884842420447000,9.120447021484376,0.1368338167667389,0.7733554244041443,-0.9668469429016113
1772884842437066500,9.13706640625,0.37720927596092224,1.2128729820251465,-1.0784826278686523
1772884842453700600,9.15370068359375,0.6531676650047302,1.1705704927444458,-1.1537717580795288
1772884842470282500,9.170282470703125,0.46990808844566345,0.48655417561531067,-0.9581421613693237
1772884842486906400,9.18690625,0.10308351367712021,-0.07773260027170181,-1.1407908201217651
1772884842503509000,9.203509033203124,-0.1992947906255722,-0.13072516024112701,-1.8257235288619995
1772884842520124000,9.2201240234375,-0.5677992701530457,-0.1518000066280365,-2.6397013664245605
