time,seconds_elapsed,z,y,x
1772884833456844500,0.156844482421875,8.73918628692627,4.340580463409424,-0.6855437159538269
1772884833473430300,0.17343017578125,8.572287559509277,4.3758745193481445,-0.5359922647476196
1772884833490034400,0.190034423828125,8.529216766357422,4.422534465789795,-0.4163511395454407
1772884833506640400,0.206640380859375,8.745766639709473,4.456034183502197,-0.13459627330303192
1772884833523248600,0.22324853515625,8.708678245544434,4.402793884277344,-0.08255238085985184
1772884833539857700,0.239857666015625,8.469395637512207,4.329812526702881,-0.31106695532798767
1772884833556480800,0.256480712890625,8.361120223999023,4.191029071807861,-0.43609192967414856
1772884833573080300,0.273080322265625,8.581260681152344,4.164707660675049,-0.4660021960735321
1772884833589675000,0.289675048828125,8.86062240600586,4.025325775146484,-0.6167500615119934
1772884833606296300,0.30629638671875,8.875576972961426,3.954737663269043,-0.7465606927871704
1772884833622903800,0.32290380859375,8.850452423095703,4.077968120574951,-0.597607433795929
1772884833639510300,0.33951025390625,8.979066848754883,4.145565032958984,-0.5018945336341858
1772884833656102400,0.356102294921875,9.084351539611816,4.1419758796691895,-0.4737788736820221
1772884833672724700,0.372724853515625,8.882756233215332,4.177868366241455,-0.5060819983482361
1772884833689347000,0.38934716796875,8.7236328125,4.1868414878845215,-0.576670229434967
1772884833705940200,0.405940185546875,8.791230201721191,4.139583110809326,-0.6203392744064331
1772884833722571300,0.4225712890625,9.025727272033691,4.146761417388916,-0.597607433795929
1772884833739149000,0.439149169921875,8.919844627380371,4.194019794464111,-0.6113662123680115
1772884833755751200,0.455751220703125,8.6907320022583,4.129413604736328,-0.6867401003837585
1772884833772373500,0.47237353515625,8.409575462341309,4.073780536651611,-0.6807580590248108
1772884833788975600,0.4889755859375,8.291130065917969,4.0528435707092285,-0.5802595019340515
1772884833805581000,0.5055810546875,8.475378036499023,3.9864425659179688,-0.4139583110809326
1772884833822190800,0.52219091796875,8.521439552307129,3.800400495529175,-0.41575294733047485
1772884833838792400,0.53879248046875,8.672187805175781,3.7292141914367676,-0.30209386348724365
1772884833855385000,0.555385009765625,9.011968612670898,3.5437703132629395,-0.04247260093688965
1772884833872029200,0.572029296875,9.065208435058594,3.0370900630950928,-0.02751746028661728
1772884833888614400,0.588614501953125,9.076574325561523,2.6362924575805664,-0.10707881301641464
1772884833905223700,0.6052236328125,9.154939651489258,2.3814568519592285,0.12023933976888657
1772884833921828900,0.621828857421875,9.032905578613281,2.0817556381225586,0.3242274820804596
1772884833938436400,0.638436279296875,8.673383712768555,1.8011972904205322,0.2189432680606842
1772884833955027700,0.65502783203125,8.220541954040527,1.6307085752487183,-0.023330021649599075
1772884833971638800,0.671638671875,7.802396297454834,1.567897081375122,-0.4953143000602722
1772884833988243500,0.688243408203125,7.507481098175049,1.587039589881897,-0.8949156403541565
1772884834004853800,0.704853759765625,7.164709091186523,1.6809579133987427,-1.1126625537872314
1772884834021458000,0.7214580078125,6.653243541717529,1.919043779373169,-1.0839486122131348
1772884834038065400,0.7380654296875,6.024528980255127,2.379063844680786,-0.7998009920120239
1772884834054673200,0.754673095703125,5.322834014892578,2.9180471897125244,-0.380458801984787
1772884834071296800,0.771296875,5.149354457855225,3.391227960586548,0.07836493849754333
1772884834087901000,0.78790087890625,5.60399055480957,3.5359935760498047,0.5120640397071838
1772884834104506600,0.804506591796875,6.315855503082275,3.390031576156616,0.6029912829399109
1772884834121112800,0.82111279296875,7.061219692230225,3.417548894882202,0.5222335457801819
1772884834137719000,0.837718994140625,7.4500532150268555,3.528815269470215,0.3248256742954254
1772884834154313500,0.8543134765625,7.792226791381836,3.624528169631958,0.2183450609445572
1772884834170935800,0.870935791015625,8.23549747467041,3.7010984420776367,0.17347964644432068
1772884834187540500,0.88754052734375,9.08853816986084,3.8871402740478516,0.21296121180057526
1772884834204149500,0.9041494140625,10.374082565307617,4.076173305511475,0.45583271980285645
1772884834220757200,0.92075732421875,12.159128189086914,4.475774765014648,0.18065811693668365
1772884834237362700,0.93736279296875,17.176877975463867,4.688137531280518,-1.0079765319824219
1772884834253956000,0.9539560546875,22.279571533203125,4.141377925872803,-2.2989044189453125
1772884834270577400,0.970577392578125,23.172693252563477,4.387838363647461,-2.60339093208313
1772884834287185400,0.987185302734375,19.89691925048828,5.523830890655518,-1.887937068939209
1772884834303790600,1.00379052734375,16.51645851135254,6.248258113861084,-0.09391828626394272
1772884834320397600,1.0203974609375,15.093326568603516,6.308078765869141,1.2251251935958862
1772884834337004500,1.037004638671875,14.249856948852539,6.530611038208008,0.9732806086540222
1772884834353603300,1.053603271484375,12.855439186096191,6.965506553649902,0.4007977843284607
1772884834370220000,1.070219970703125,11.310873031616211,7.077969551086426,0.9702895879745483
1772884834386825200,1.0868251953125,10.101301193237305,6.4701924324035645,2.3162522315979004
1772884834403437300,1.103437255859375,10.109077453613281,5.153541564941406,4.11924409866333
1772884834420042500,1.12004248046875,9.30030345916748,2.9419753551483154,4.95912504196167
1772884834436631000,1.136631103515625,9.589835166931152,0.7316055297851562,4.113262176513672
1772884834453241600,1.15324169921875,10.514062881469727,-0.966102123260498,2.2307088375091553
1772884834469850400,1.169850341796875,12.43250846862793,-0.9038887619972229,0.0729810893535614
1772884834486454300,1.186454345703125,14.063217163085938,-0.029910283163189888,-0.45164528489112854
1772884834503063600,1.2030634765625,13.439887046813965,1.1150553226470947,-0.267397940158844
1772884834519670300,1.219670166015625,9.841081619262695,1.0097711086273193,0.8333004713058472
1772884834536278300,1.2362783203125,5.735595703125,1.1820544004440308,0.6616154313087463
1772884834552912400,1.252912353515625,3.2937204837799072,1.5314065217971802,-0.8333004713058472
1772884834569504300,1.269504150390625,1.9567307233810425,1.3758729696273804,-2.3096721172332764
1772884834586112500,1.286112548828125,1.6265212297439575,1.2472587823867798,-3.4091739654541016
1772884834602718700,1.30271875,1.9764715433120728,0.7136593461036682,-2.630310297012329
1772884834619347500,1.319347412109375,2.242672920227051,0.7022934556007385,-1.4506487846374512
1772884834635933200,1.33593310546875,2.235494613647461,1.3232308626174927,-0.7668996453285217
1772884834652540000,1.352539794921875,2.0578274726867676,1.602592945098877,-0.06580262631177902
1772884834669144800,1.369144775390625,1.7431713342666626,1.5930216312408447,0.09391828626394272
1772884834685751300,1.385751220703125,1.6941183805465698,1.358525037765503,0.025722842663526535
1772884834702366500,1.402366455078125,1.892722725868225,0.9978070259094238,-0.01196411345154047
1772884834718958600,1.41895849609375,2.4269204139709473,0.7310073375701904,0.4953143000602722
1772884834735575300,1.4355751953125,3.40079927444458,1.0205388069152832,0.9367900490760803
1772884834752170000,1.452169921875,4.878965377807617,1.7461622953414917,0.7567301392555237
1772884834768780300,1.4687802734375,10.5361967086792,2.9838497638702393,0.8626125454902649
1772884834785399600,1.485399658203125,16.984853744506836,2.926422119140625,1.2041879892349243
1772884834801990000,1.501989990234375,20.135602951049805,2.101496458053589,-0.9002995491027832
1772884834818608000,1.518608154296875,19.18984031677246,1.0660024881362915,-3.638286828994751
1772884834835217400,1.535217529296875,13.908281326293945,2.368894338607788,-5.535795211791992
1772884834851826200,1.551826171875,4.012165546417236,8.797810554504395,-6.059225082397461
1772884834868429800,1.568429931640625,3.669393539428711,13.02652645111084,-4.5338006019592285
1772884834885038600,1.58503857421875,7.328617572784424,13.135997772216797,-3.7262229919433594
1772884834901644800,1.601644775390625,13.84666633605957,8.804390907287598,-1.4374881982803345
1772884834918251500,1.61825146484375,16.85982894897461,4.40757942199707,-0.4773681163787842
1772884834934844200,1.63484423828125,13.386646270751953,1.4578272104263306,-0.1495514214038849
1772884834951451600,1.65145166015625,9.708877563476562,0.7872386574745178,2.6733810901641846
1772884834968059400,1.668059326171875,10.267004013061523,0.8608179688453674,5.61236572265625
1772884834984666400,1.684666259765625,17.671592712402344,0.12083754688501358,5.20678186416626
1772884835001279200,1.701279296875,20.075782775878906,-2.1571295261383057,2.54536509513855
1772884835017879800,1.7178798828125,17.83310890197754,-1.7539390325546265,-1.1982059478759766
1772884835034491600,1.73449169921875,13.593027114868164,-0.5150550603866577,-2.050050735473633
1772884835051093200,1.75109326171875,9.004191398620605,0.8051848411560059,-0.40737804770469666
1772884835067693300,1.767693359375,5.578866004943848,2.142174482345581,0.6933203339576721
1772884835084348200,1.78434814453125,3.8973097801208496,3.1830523014068604,0.44745782017707825
1772884835100929300,1.80092919921875,3.7674992084503174,3.617947816848755,-1.3663017749786377
1772884835117534200,1.8175341796875,5.067399978637695,1.9124635457992554,-0.6352944374084473
1772884835134144300,1.834144287109375,5.240281581878662,1.6636099815368652,0.20877377688884735
1772884835150749700,1.850749755859375,4.4380879402160645,2.0751755237579346,0.890728235244751
1772884835167359500,1.867359375,3.1896326541900635,2.3946173191070557,1.1389836072921753
1772884835183968500,1.883968505859375,2.135594129562378,2.8085756301879883,0.6604190468788147
1772884835200571100,1.900571044921875,2.6285157203674316,3.015554666519165,0.592223584651947
1772884835217181000,1.917180908203125,3.954737663269043,2.8636105060577393,1.0187442302703857
1772884835233782500,1.933782470703125,6.100501537322998,2.569293260574341,1.1910275220870972
1772884835250377000,1.950376953125,8.34855842590332,2.059023857116699,1.007378339767456
1772884835266999300,1.966999267578125,11.769098281860352,2.7427730560302734,-0.833898663520813
1772884835283607600,1.983607666015625,16.637296676635742,3.1100711822509766,-2.417947292327881
1772884835300213800,2.0002138671875,19.447067260742188,3.2823543548583984,-4.010969161987305
1772884835316801000,2.016801025390625,18.890735626220703,4.448855400085449,-5.194818019866943
1772884835333432000,2.03343212890625,14.257634162902832,6.195616245269775,-5.471786975860596
1772884835350023400,2.0500234375,9.5802640914917,8.331210136413574,-4.779065132141113
1772884835366637300,2.06663720703125,8.50169849395752,9.287142753601074,-3.7232320308685303
1772884835383254000,2.08325390625,9.768099784851074,9.198010444641113,-3.477369546890259
1772884835399855400,2.09985546875,9.047262191772461,8.224729537963867,-2.41375994682312
1772884835424754000,2.12475390625,6.049654006958008,5.6931233406066895,-0.48813581466674805
1772884835441361200,2.141361083984375,5.13320255279541,2.6626133918762207,1.3692927360534668
1772884835457957000,2.15795703125,5.7649078369140625,0.7040880918502808,2.9964120388031006
1772884835474561300,2.174561279296875,6.97268533706665,-0.4001995921134949,3.8327035903930664
1772884835491182000,2.19118212890625,8.907281875610352,-0.50129634141922,2.950948476791382
1772884835507784200,2.2077841796875,11.420942306518555,-0.7603194117546082,1.700698733329773
1772884835524398800,2.22439892578125,11.33539867401123,-0.5156532526016235,0.32542386651039124
1772884835541021000,2.24102099609375,8.36590576171875,0.41874396800994873,0.3397808074951172
1772884835557621200,2.257621337890625,4.598406791687012,1.3286148309707642,0.5682953596115112
1772884835574230500,2.27423046875,2.9066812992095947,1.679761528968811,0.4372883439064026
1772884835590836200,2.290836181640625,4.937589645385742,1.4644074440002441,0.17527425289154053
1772884835607440000,2.30743994140625,8.118846893310547,0.9080761671066284,-0.12382857501506805
1772884835624067000,2.324067138671875,9.276973724365234,0.19202402234077454,-0.01615155301988125
1772884835640657200,2.3406572265625,7.761718273162842,0.4181457459926605,0.18544375896453857
1772884835657276200,2.357276123046875,4.990231513977051,1.3704891204833984,0.5952146053314209
1772884835673893400,2.373893310546875,3.4947173595428467,2.056631088256836,0.7716853022575378
1772884835690477300,2.390477294921875,4.0803608894348145,2.4083759784698486,0.6275177597999573
1772884835707080700,2.407080810546875,6.044867992401123,2.3048863410949707,0.6681957244873047
1772884835723698000,2.423697998046875,8.82652473449707,2.23848557472229,0.7668996453285217
1772884835740296200,2.440296142578125,12.177074432373047,2.11405873298645,0.5461617708206177
1772884835756891000,2.456890869140625,15.875182151794434,2.3670997619628906,-0.3577269911766052
1772884835773499100,2.4734990234375,18.963119506835938,1.827518343925476,-1.6947166919708252
1772884835790121700,2.490121826171875,20.68056869506836,1.4727823734283447,-2.8354947566986084
1772884835806725000,2.50672509765625,21.492332458496094,4.117449760437012,-2.758326292037964
1772884835823348000,2.523347900390625,20.347368240356445,7.128817081451416,-1.5200406312942505
1772884835839942000,2.53994189453125,17.613567352294922,8.067999839782715,-3.5060834884643555
1772884835856533200,2.556533203125,13.181461334228516,7.77607536315918,-5.912664890289307
1772884835873138200,2.57313818359375,10.053443908691406,9.735796928405762,-7.444669246673584
1772884835889769500,2.58976953125,10.999805450439453,10.557133674621582,-5.947360515594482
1772884835906349600,2.606349609375,10.552348136901855,8.057231903076172,-3.944568157196045
1772884835922969300,2.62296923828125,7.307680130004883,4.82751989364624,-2.3958137035369873
1772884835939572200,2.639572265625,4.43330192565918,2.1439690589904785,-1.0648061037063599
1772884835956166700,2.656166748046875,5.682953834533691,1.31365966796875,0.31824541091918945
1772884835972776700,2.672776611328125,8.399405479431152,0.5814558863639832,1.5936198234558105
1772884835989393200,2.68939306640625,9.397212982177734,0.5694918036460876,1.9800606966018677
1772884836005998600,2.70599853515625,8.1553373336792,1.5894324779510498,0.8757730722427368
1772884836022613800,2.72261376953125,6.043671607971191,2.025524377822876,-0.2763710021972656
1772884836039226000,2.73922607421875,4.097110748291016,2.1415762901306152,-1.2544373273849487
1772884836055829800,2.755829833984375,3.4995031356811523,2.163111686706543,-1.1838489770889282
1772884836072437800,2.772437744140625,3.606581926345825,2.1714866161346436,-0.882951557636261
1772884836089060600,2.789060546875,4.020540237426758,2.0883359909057617,-0.6807580590248108
1772884836105647900,2.80564794921875,3.655036687850952,1.771286964416504,-0.42711883783340454
1772884836122274000,2.822274169921875,2.7254250049591064,1.4991034269332886,0.03529413416981697
1772884836138867700,2.83886767578125,1.5236297845840454,1.6977076530456543,0.4785645306110382
1772884836155486200,2.855486328125,0.7974081635475159,2.317448616027832,0.9750752449035645
1772884836172133000,2.872133056640625,1.0869396924972534,2.562114953994751,1.3244273662567139
1772884836188689000,2.88868896484375,2.063211441040039,2.586043119430542,1.4530415534973145
1772884836205288700,2.905288818359375,3.912863254547119,2.2923240661621094,1.765903115272522
1772884836221910500,2.92191064453125,6.812366008758545,1.9423737525939941,2.1296122074127197
1772884836238509300,2.93850927734375,10.474580764770508,1.9866410493850708,1.0091729164123535
1772884836255111400,2.955111328125,15.741782188415527,2.6865415573120117,-1.5314065217971802
1772884836271717400,2.97171728515625,20.092531204223633,3.0927233695983887,-3.943969964981079
1772884836288352800,2.988352783203125,21.06162452697754,3.8081772327423096,-5.900700569152832
1772884836304936200,3.004936279296875,17.73320770263672,6.020939826965332,-6.444469451904297
1772884836321549800,3.0215498046875,12.985848426818848,8.432307243347168,-6.184250354766846
1772884836338149400,3.0381494140625,11.861820220947266,8.191229820251465,-4.5822553634643555
1772884836354763300,3.05476318359375,11.81037425994873,6.013163089752197,-3.326023578643799
1772884836371367000,3.071366943359375,11.390434265136719,5.023132801055908,-1.6187444925308228
1772884836387977000,3.08797705078125,11.219944953918457,3.1854450702667236,-0.11066804826259613
1772884836404561700,3.104561767578125,10.480563163757324,0.43489551544189453,1.1216355562210083
1772884836421179100,3.12117919921875,10.356734275817871,-0.6759724020957947,1.6402798891067505
1772884836437781500,3.137781494140625,11.5914306640625,-0.9074779748916626,1.7802600860595703
1772884836454389200,3.15438916015625,13.170095443725586,-1.0259226560592651,1.373480200767517
1772884836470999000,3.1709990234375,12.630514144897461,-0.9320043921470642,0.30568310618400574
1772884836487591000,3.1875908203125,9.977472305297852,-0.39840495586395264,-0.6323033571243286
1772884836504207400,3.204207275390625,7.026523590087891,0.4899304509162903,-0.8045865893363953
1772884836520825900,3.220825927734375,4.801198482513428,1.1988041400909424,-0.28953152894973755
1772884836537434400,3.237434326171875,3.5988051891326904,1.6426727771759033,0.05024927482008934
1772884836554049500,3.254049560546875,4.012763500213623,1.8472590446472168,-0.4336991012096405
1772884836570648000,3.27064794921875,5.269593715667725,1.3782658576965332,-0.5443671345710754
1772884836587264500,3.287264404296875,5.842674732208252,1.1270195245742798,-0.7076773047447205
1772884836603851000,3.30385107421875,5.362913608551025,1.2783654928207397,-0.4833501875400543
1772884836620481500,3.3204814453125,4.120440483093262,1.6666009426116943,0.13878370821475983
1772884836637081300,3.337081298828125,3.2961132526397705,2.2504496574401855,0.22851456701755524
1772884836653667300,3.353667236328125,3.806382656097412,2.7930221557617188,0.03409772366285324
1772884836670279400,3.370279541015625,5.088935375213623,2.8007988929748535,0.8063812255859375
1772884836686884400,3.38688427734375,7.101299285888672,3.025724172592163,1.1359925270080566
1772884836703512800,3.403512939453125,11.179865837097168,3.10528564453125,0.8745766878128052
1772884836720108000,3.42010791015625,17.400606155395508,2.7559335231781006,-0.8512466549873352
1772884836736732200,3.436732177734375,21.622142791748047,2.1744775772094727,-3.1657042503356934
1772884836753330700,3.45333056640625,20.061424255371094,2.8342983722686768,-5.744568824768066
1772884836769937400,3.4699375,13.415958404541016,6.125626087188721,-5.644070625305176
1772884836786545700,3.486545654296875,8.198408126831055,11.377273559570312,-4.58584451675415
1772884836803149800,3.50314990234375,9.162715911865234,11.423933982849121,-2.5920250415802
1772884836819754000,3.51975390625,12.88235855102539,9.119047164916992,-3.1417760848999023
1772884836836370400,3.536370361328125,13.747962951660156,6.865606307983398,-3.1920254230499268
1772884836852972500,3.55297265625,11.858829498291016,5.406582832336426,-2.861815929412842
1772884836869579800,3.569579833984375,9.724431037902832,3.903291940689087,-2.0482561588287354
1772884836886169300,3.58616943359375,7.763513088226318,2.1786649227142334,-0.33738797903060913
1772884836902779400,3.602779296875,5.801398277282715,0.9200403094291687,1.171286702156067
1772884836919387000,3.619386962890625,5.977869033813477,0.6167500615119934,1.6558332443237305
1772884836935993900,3.635993896484375,9.510273933410645,0.3164508044719696,0.906281590461731
1772884836952587800,3.652587890625,12.125030517578125,-0.34217363595962524,0.04486542567610741
1772884836969207800,3.669207763671875,12.110074996948242,0.20877377688884735,-0.6586244106292725
1772884836985811500,3.6858115234375,10.351350784301758,1.036690354347229,-0.06400800496339798
1772884837002425300,3.70242529296875,7.564908981323242,1.8293129205703735,0.5461617708206177
1772884837019032300,3.7190322265625,5.1050872802734375,2.0578274726867676,0.37028929591178894
1772884837035632400,3.73563232421875,3.1142587661743164,2.2259232997894287,-0.5880361795425415
1772884837052246800,3.752246826171875,2.3222343921661377,2.2881367206573486,-1.5828521251678467
1772884837068864300,3.7688642578125,2.706282377243042,1.8293129205703735,-1.1772687435150146
1772884837085475800,3.785475830078125,3.0478577613830566,1.9435701370239258,-0.6520441770553589
1772884837102072800,3.80207275390625,2.827120065689087,2.2510478496551514,-0.5144568681716919
1772884837118692900,3.81869287109375,2.5465614795684814,2.5232315063476562,-0.18125630915164948
1772884837135284700,3.83528466796875,2.8869404792785645,2.554338216781616,-0.04426721855998039
1772884837151899000,3.85189892578125,3.122035264968872,2.0997018814086914,0.2476571500301361
1772884837168505900,3.868505859375,3.0592236518859863,1.690529227256775,0.45104706287384033
1772884837185113300,3.88511328125,5.0327043533325195,2.3533411026000977,0.41096729040145874
1772884837201719600,3.901719482421875,10.17308521270752,4.453042984008789,-1.4057832956314087
1772884837218320600,3.918320556640625,19.342979431152344,5.513063430786133,-2.496910333633423
1772884837234937000,3.93493701171875,24.211177825927734,5.498108386993408,-2.9694929122924805
1772884837251545000,3.951545166015625,21.586252212524414,6.931408882141113,-4.388436794281006
1772884837268148500,3.9681484375,15.479767799377441,9.58205795288086,-4.850849628448486
1772884837284755200,3.984755126953125,13.247862815856934,9.795019149780273,-4.597808837890625
1772884837301362000,4.00136181640625,11.680563926696777,9.148359298706055,-5.401797294616699
1772884837317966000,4.017966064453125,13.311272621154785,7.944170951843262,-4.587639331817627
1772884837334579500,4.034579345703125,15.67358684539795,4.449453830718994,-2.465205430984497
1772884837351183000,4.05118310546875,15.326626777648926,1.9196419715881348,-1.3722838163375854
1772884837367790800,4.067790771484375,12.742379188537598,1.2281162738800049,0.2063809484243393
1772884837384380200,4.084380126953125,10.465607643127441,1.4530415534973145,1.8179470300674438
1772884837400990500,4.100990478515625,10.892128944396973,1.7868403196334839,1.4021940231323242
1772884837417594600,4.1175947265625,10.570294380187988,1.113858938217163,0.7339983582496643
1772884837434208000,4.1342080078125,8.594420433044434,0.5252245664596558,0.4875376224517822
1772884837450812000,4.15081201171875,6.184848308563232,0.5306084156036377,0.137587308883667
1772884837467418600,4.167418701171875,4.266402721405029,1.4446666240692139,-0.07417750358581543
1772884837484012800,4.1840126953125,2.9276185035705566,2.2031915187835693,0.7806583642959595
1772884837500633000,4.200633056640625,2.806781053543091,2.386242389678955,1.1030912399291992
1772884837517249300,4.217249267578125,3.095116138458252,1.913659930229187,0.7202396392822266
1772884837533854200,4.233854248046875,3.6191442012786865,1.414756417274475,0.388235479593277
1772884837550468000,4.250468017578125,4.222135543823242,0.9475577473640442,0.4336991012096405
1772884837567074300,4.26707421875,3.971487283706665,0.7908278703689575,0.49172505736351013
1772884837583678000,4.283677978515625,3.2099716663360596,0.9475577473640442,0.8225327730178833
1772884837600292600,4.300292724609375,2.6297121047973633,1.088136076927185,1.0133603811264038
1772884837616892000,4.316891845703125,2.633301258087158,1.01814603805542,1.3710874319076538
1772884837633507300,4.33350732421875,3.4989049434661865,1.2287144660949707,1.9130617380142212
1772884837650110200,4.350110107421875,5.193621635437012,1.7904295921325684,2.2187447547912598
1772884837666717400,4.366717529296875,7.869993686676025,2.094916343688965,1.8855443000793457
1772884837683318300,4.383318359375,12.979866027832031,2.870789051055908,0.3607180118560791
1772884837699936800,4.399936767578125,18.2769775390625,3.8117663860321045,-0.6047859191894531
1772884837716538400,4.416538330078125,19.403398513793945,5.3108696937561035,-3.373879909515381
1772884837733145300,4.433145263671875,15.687943458557129,7.062416076660156,-6.004190444946289
1772884837749751800,4.449751708984375,11.620742797851562,8.803792953491211,-6.068796634674072
1772884837766359600,4.466359619140625,12.054442405700684,10.203594207763672,-5.176273345947266
1772884837782970400,4.482970458984375,14.30907917022705,9.736394882202148,-4.173680782318115
1772884837799569200,4.499569091796875,15.03290843963623,7.398009300231934,-3.448655605316162
1772884837816180500,4.516180419921875,16.56551170349121,5.8343000411987305,-3.325425386428833
1772884837832787700,4.53278759765625,19.494325637817383,4.299304008483887,-1.9040886163711548
1772884837849394400,4.54939453125,18.43968963623047,2.895913600921631,0.3774677813053131
1772884837865984300,4.565984375,12.312867164611816,2.8630123138427734,2.191227436065674
1772884837882594800,4.5825947265625,6.367899417877197,3.5605201721191406,3.215355396270752
1772884837899201500,4.599201416015625,4.050450325012207,3.730410575866699,2.8037898540496826
1772884837915806200,4.61580615234375,5.474778175354004,3.445066452026367,0.9332008361816406
1772884837932418600,4.63241845703125,7.09711217880249,2.4358935356140137,-0.47976094484329224
1772884837949022700,4.649022705078125,7.034300327301025,1.7001005411148071,-1.2598211765289307
1772884837965629700,4.665629638671875,5.7792649269104,1.7581263780593872,-1.2664014101028442
1772884837982237000,4.68223681640625,5.176273345947266,2.2055842876434326,-0.02153540402650833
1772884837998847200,4.69884716796875,4.180859565734863,2.710469961166382,0.7483552694320679
1772884838015466800,4.715466796875,2.994617462158203,2.7966115474700928,0.32542386651039124
1772884838032070400,4.7320703125,2.406581401824951,2.5645077228546143,0.4325026869773865
1772884838048678400,4.748678466796875,2.032702922821045,2.8893332481384277,0.5754738450050354
1772884838065285600,4.76528564453125,2.263011932373047,3.1680972576141357,0.7148557901382446
1772884838081892000,4.78189208984375,3.169891834259033,3.236292600631714,0.6143572330474854
1772884838098503200,4.798503173828125,5.111069202423096,3.2542388439178467,0.39840495586395264
1772884838115110000,4.81510986328125,8.09970474243164,3.132802963256836,0.48574298620224
1772884838131709000,4.831708984375,10.65942668914795,3.0717861652374268,0.18843477964401245
1772884838148320800,4.84832080078125,14.464015007019043,3.731606960296631,0.02392822690308094
1772884838164928000,4.864927978515625,17.321643829345703,3.958326816558838,0.06161518394947052
1772884838181531400,4.881531494140625,16.438692092895508,3.9672999382019043,-1.0187442302703857
1772884838198145800,4.898145751953125,12.915858268737793,4.58584451675415,-2.3336002826690674
1772884838214745000,4.9147451171875,10.689336776733398,6.830312252044678,-1.2089736461639404
1772884838231356400,4.9313564453125,11.576476097106934,10.068997383117676,-1.042074203491211
1772884838247967000,4.947967041015625,14.47298812866211,11.029117584228516,-1.6971094608306885
1772884838264570400,4.9645703125,14.059029579162598,8.136195182800293,-3.1172497272491455
1772884838281176000,4.981176025390625,11.491530418395996,6.901498794555664,-4.168895244598389
1772884838297784600,4.99778466796875,14.360525131225586,6.8141608238220215,-2.531008243560791
1772884838314387500,5.014387451171875,17.734405517578125,4.822135925292969,-0.22612173855304718
1772884838331002400,5.03100244140625,16.775482177734375,3.3655049800872803,0.47676992416381836
1772884838347605000,5.04760498046875,11.620144844055176,2.813361167907715,1.482353687286377
1772884838364195300,5.0641953125,5.893522262573242,3.1028928756713867,1.8370895385742188
1772884838380805400,5.080805419921875,2.4879374504089355,3.379862070083618,2.087737798690796
1772884838397412900,5.097412841796875,0.9601200819015503,3.322434186935425,1.7563318014144897
1772884838414014500,5.114014404296875,0.9924231767654419,3.236292600631714,1.272383451461792
1772884838430631700,5.130631591796875,2.6141586303710938,3.1513473987579346,0.9373882412910461
1772884838447230700,5.147230712890625,5.684150218963623,2.772084951400757,1.0085747241973877
1772884838463844000,5.163843994140625,7.76052188873291,2.297708034515381,0.33798620104789734
1772884838480447500,5.180447509765625,7.584051132202148,1.7850457429885864,-0.38703906536102295
1772884838497071600,5.197071533203125,6.2913289070129395,1.6019947528839111,-0.2183450609445572
1772884838513672000,5.213671875,4.740779876708984,1.6839489936828613,-0.02273181453347206
1772884838530286800,5.230286865234375,2.7912275791168213,1.8011972904205322,0.037088751792907715
1772884838546889500,5.246889404296875,1.1736794710159302,2.3060827255249023,-0.022133609279990196
1772884838563497000,5.2634970703125,0.5706881880760193,3.370290756225586,0.09451649338006973
1772884838580104400,5.2801044921875,2.0751755237579346,4.01754903793335,0.7698906660079956
1772884838596701700,5.29670166015625,5.397609710693359,4.60558557510376,0.5832505226135254
1772884838613318100,5.313318115234375,10.198209762573242,4.956133842468262,0.2961117923259735
1772884838629933000,5.32993310546875,12.914063453674316,4.802394866943359,-1.2795618772506714
1772884838646531800,5.34653173828125,13.210175514221191,5.165505886077881,-3.201596736907959
1772884838663138800,5.363138916015625,12.480962753295898,6.686742782592773,-3.487539052963257
1772884838679747600,5.37974755859375,11.633903503417969,8.318648338317871,-1.6863417625427246
1772884838696347100,5.39634716796875,9.658628463745117,9.089137077331543,-0.8087740540504456
1772884838712963000,5.412963134765625,9.049654960632324,9.44626522064209,-1.4243277311325073
1772884838729568300,5.429568359375,9.516854286193848,7.9657063484191895,-2.32761812210083
1772884838746173700,5.446173583984375,10.908878326416016,6.736393928527832,-2.2636101245880127
1772884838762781000,5.462781005859375,13.131811141967773,6.952944278717041,-1.2795618772506714
1772884838779384300,5.47938427734375,14.008780479431152,6.405586242675781,-0.4420739710330963
1772884838795999000,5.4959990234375,12.454642295837402,5.494519233703613,0.062213387340307236
1772884838812601300,5.512601318359375,9.285347938537598,4.146761417388916,0.3188436031341553
1772884838829210400,5.52921044921875,6.8141608238220215,3.0382864475250244,0.39182472229003906
1772884838845798700,5.545798583984375,6.059823513031006,2.641676187515259,1.062413215637207
1772884838862409500,5.562409423828125,5.781657695770264,2.554338216781616,1.451246976852417
1772884838879013400,5.579013427734375,5.830710411071777,2.4460630416870117,1.2490534782409668
1772884838895640600,5.595640625,6.006583213806152,2.1302103996276855,0.9110672473907471
1772884838912233700,5.612233642578125,6.002993583679199,1.9244276285171509,-0.2147558331489563
1772884838928834600,5.62883447265625,5.881557941436768,1.7102699279785156,-1.1431710720062256
1772884838945444600,5.645444580078125,5.98026180267334,1.7048860788345337,-1.4931213855743408
1772884838962051800,5.6620517578125,6.072385787963867,1.9950158596038818,-1.1467602252960205
1772884838978658600,5.678658447265625,5.986244201660156,2.434098720550537,-0.5790630578994751
1772884838995284700,5.69528466796875,5.931209087371826,2.6470601558685303,-0.3332005441188812
1772884839011881500,5.711881591796875,6.364908218383789,2.878565549850464,0.04426721855998039
1772884839028496600,5.72849658203125,6.665805816650391,3.352344512939453,-0.15972091257572174
1772884839045100800,5.745100830078125,6.914659023284912,3.830310821533203,-0.9565308690071106
1772884839061707800,5.761707763671875,8.489136695861816,4.48115873336792,-1.2047861814498901
1772884839078316300,5.77831640625,11.542976379394531,5.535795211791992,-0.9463613629341125
1772884839094920400,5.79492041015625,13.780265808105469,6.445067882537842,-0.8997012972831726
1772884839111524400,5.8115244140625,13.389636993408203,6.819544315338135,-0.9852447509765625
1772884839128140300,5.828140380859375,12.588041305541992,7.10429048538208,-0.5670989751815796
1772884839144743000,5.844742919921875,12.244671821594238,7.57806921005249,-0.4707878530025482
1772884839161349600,5.861349609375,10.935199737548828,7.950751304626465,-2.101496458053589
1772884839177953800,5.877953857421875,9.254241943359375,8.383254051208496,-3.954139471054077
1772884839194563300,5.894563232421875,7.905886173248291,8.532207489013672,-4.103092670440674
1772884839211169800,5.911169677734375,9.396614074707031,8.303094863891602,-2.204986095428467
1772884839227782100,5.9277822265625,13.401002883911133,7.320242881774902,-0.7519445419311523
1772884839244385000,5.944385009765625,15.949957847595215,5.234897613525391,-0.39900317788124084
1772884839260991500,5.960991455078125,14.304293632507324,3.5736806392669678,-0.727418065071106
1772884839277596200,5.97759619140625,10.942378044128418,3.1214370727539062,-0.24287149310112
1772884839294206000,5.9942060546875,7.614559650421143,3.063411235809326,0.6885347366333008
1772884839310813200,6.010813232421875,5.459823131561279,3.246462106704712,1.7976080179214478
1772884839327422700,6.027422607421875,4.502095699310303,3.3409786224365234,1.8897316455841064
1772884839344009700,6.044009765625,4.82751989364624,3.156731367111206,1.389033555984497
1772884839360620000,6.0606201171875,5.356931686401367,2.86061954498291,0.2793620526790619
1772884839377227500,6.0772275390625,6.174080848693848,2.9898319244384766,-1.0013962984085083
1772884839393834000,6.093833984375,6.793821811676025,2.6697919368743896,-0.8063812255859375
1772884839410441200,6.110441162109375,6.844070911407471,2.4747767448425293,-0.31106695532798767
1772884839427048400,6.12704833984375,6.104090690612793,2.562713146209717,0.23449662327766418
1772884839443655400,6.143655517578125,4.978267669677734,2.9048867225646973,0.267397940158844
1772884839460262100,6.16026220703125,4.024129390716553,2.9246275424957275,0.09092725813388824
1772884839526705000,6.226704833984375,7.956733703613281,4.209573268890381,-1.5050854682922363
1772884839543311400,6.243311279296875,11.622537612915039,5.168497085571289,-1.5708880424499512
1772884839559918000,6.25991796875,15.013167381286621,6.300900459289551,-1.5625132322311401
1772884839576527000,6.276527099609375,16.115659713745117,7.133004188537598,-1.7922241687774658
1772884839593131300,6.29313134765625,15.238691329956055,6.7310099601745605,-1.7282161712646484
1772884839609739300,6.3097392578125,12.918848991394043,6.6113691329956055,-1.8544375896453857
1772884839626346800,6.3263466796875,9.963713645935059,7.098906517028809,-1.6576279401779175
1772884839642953000,6.342952880859375,7.76470947265625,7.856832981109619,-1.2855439186096191
1772884839659560700,6.359560791015625,7.3884382247924805,8.714659690856934,-0.7603194117546082
1772884839676167000,6.3761669921875,9.203991889953613,8.585447311401367,-0.0687936544418335
1772884839692775700,6.392775634765625,12.261421203613281,7.486543655395508,-0.3475574851036072
1772884839709380600,6.409380615234375,14.429917335510254,6.106483459472656,-1.311864972114563
1772884839725989600,6.42598974609375,13.73898983001709,5.103890895843506,-0.7848458290100098
1772884839742595300,6.44259521484375,10.579865455627441,4.448855400085449,0.8350951075553894
1772884839759202300,6.459202392578125,6.749554634094238,3.9014973640441895,1.8239290714263916
1772884839775806000,6.475805908203125,3.4097721576690674,3.6460635662078857,1.1425727605819702
1772884839792421600,6.492421630859375,3.294916868209839,3.0831520557403564,0.21595224738121033
1772884839809027800,6.50902783203125,5.896512985229492,2.4496521949768066,0.35413774847984314
1772884839825608400,6.5256083984375,7.219145774841309,2.5232315063476562,0.09391828626394272
1772884839842223600,6.5422236328125,7.5427751541137695,2.843271493911743,0.02751746028661728
1772884839858831000,6.5588310546875,8.24267578125,3.050250768661499,0.8476574420928955
1772884839875422700,6.575422607421875,7.859824180603027,2.82951283454895,0.9487541913986206
1772884839892044800,6.592044921875,6.790830612182617,2.318047046661377,0.6209374666213989
1772884839908653000,6.608653076171875,5.38624382019043,2.1852452754974365,-0.18544375896453857
1772884839925261300,6.62526123046875,4.216751575469971,2.221735715866089,-0.3601198196411133
1772884839941866000,6.641865966796875,3.2482566833496094,2.3120648860931396,-0.4019941985607147
1772884839958473000,6.658472900390625,2.8689942359924316,2.4119651317596436,-0.22193430364131927
1772884839975080400,6.67508056640625,3.528217077255249,2.7397818565368652,-0.19920247793197632
1772884839991699700,6.69169970703125,5.545366287231445,3.4408788681030273,-0.7698906660079956
1772884840008308000,6.708307861328125,8.3300142288208,4.3447675704956055,-1.109073281288147
1772884840024919300,6.724919189453125,10.285548210144043,5.3216376304626465,-2.1744775772094727
1772884840041521700,6.741521728515625,12.1537446975708,6.453442573547363,-2.2773690223693848
1772884840058128600,6.758128662109375,13.810175895690918,7.063014030456543,-0.3403790295124054
1772884840074736000,6.774736083984375,13.024731636047363,6.620940208435059,1.1724830865859985
1772884840091339500,6.791339599609375,10.357931137084961,7.408178806304932,0.29850462079048157
1772884840107950300,6.807950439453125,8.328219413757324,7.648059368133545,-1.3286148309707642
1772884840124560000,6.824559814453125,8.177471160888672,8.012965202331543,-2.864806890487671
1772884840141163800,6.841163818359375,9.464211463928223,8.858229637145996,-2.6697919368743896
1772884840157770800,6.857770751953125,11.821142196655273,8.85523796081543,-1.5068800449371338
1772884840174383400,6.87438330078125,14.19422435760498,8.208578109741211,-1.256830096244812
1772884840190981400,6.8909814453125,15.113067626953125,7.406384468078613,-1.3926228284835815
1772884840207592000,6.907592041015625,14.58485221862793,6.222535133361816,-0.6807580590248108
1772884840224198100,6.9241982421875,12.224930763244629,5.529813289642334,0.15972091257572174
1772884840240806000,6.940805908203125,8.70628547668457,5.225924491882324,0.4307080805301666
1772884840257413600,6.95741357421875,5.438287734985352,4.928018093109131,0.37028929591178894
1772884840274016300,6.974016357421875,3.572484254837036,4.415356159210205,-0.27337998151779175
1772884840290627000,6.990626953125,3.730410575866699,3.6394832134246826,-1.1407781839370728
1772884840307234600,7.007234619140625,4.9980082511901855,2.9772696495056152,-1.5930216312408447
1772884840323828500,7.023828369140625,6.263213157653809,2.486142635345459,-1.3214362859725952
1772884840340434400,7.040434326171875,6.716653347015381,2.2468605041503906,-0.6993024349212646
1772884840357041400,7.05704150390625,6.211767673492432,2.33180570602417,-0.035892341285943985
1772884840373649000,7.07364892578125,4.993222713470459,2.3030917644500732,0.1381855010986328
1772884840390256600,7.090256591796875,3.638885021209717,2.4400808811187744,-0.2787638306617737
1772884840406864100,7.106864013671875,3.1334011554718018,2.5597219467163086,-0.37028929591178894
1772884840423467000,7.123467041015625,3.728017568588257,2.8737800121307373,0.015553346835076809
1772884840440076800,7.140076904296875,4.633102893829346,3.3996028900146484,0.12442677468061447
1772884840456683500,7.15668359375,5.676971912384033,3.9696927070617676,-0.3026920557022095
1772884840473294000,7.173294189453125,7.332206726074219,5.3318071365356445,-0.8566305041313171
1772884840489896700,7.189896728515625,9.53779125213623,6.5252275466918945,-1.089930772781372
1772884840506519600,7.20651953125,11.397014617919922,7.011568546295166,-0.747757077217102
1772884840523099000,7.223098876953125,12.386445999145508,7.9244303703308105,-0.48394837975502014
1772884840539732700,7.239732666015625,11.607583045959473,7.797610759735107,-0.6622136831283569
1772884840556339000,7.2563388671875,10.64507007598877,7.4500532150268555,-0.33858439326286316
1772884840572943600,7.272943603515625,10.194621086120605,7.643273830413818,-0.6119644045829773
1772884840589563000,7.28956298828125,9.53659439086914,8.01057243347168,-1.3615161180496216
1772884840606150700,7.306150634765625,9.434301376342773,8.579465866088867,-1.423729419708252
1772884840622771200,7.322771240234375,10.475777626037598,8.690134048461914,-0.6681957244873047
1772884840639375000,7.339375,12.618550300598145,8.323433876037598,-0.36729827523231506
1772884840655988700,7.35598876953125,13.977673530578613,7.57806921005249,-1.0546365976333618
1772884840672594700,7.3725947265625,13.170095443725586,6.601199626922607,-1.4973087310791016
1772884840689185800,7.389185791015625,11.187642097473145,5.853442192077637,-1.022931694984436
1772884840705802800,7.405802734375,9.022137641906738,4.816751956939697,-0.009571290574967861
1772884840722414300,7.422414306640625,6.92183780670166,3.99900484085083,0.6753742098808289
1772884840739016200,7.43901611328125,5.49930477142334,3.149552822113037,0.8733802437782288
1772884840755624000,7.4556240234375,5.760122299194336,2.675175666809082,0.6867401003837585
1772884840772233000,7.47223291015625,6.387639999389648,2.2779672145843506,0.3026920557022095
1772884840788832500,7.48883251953125,6.1944193840026855,1.9968105554580688,-0.03349951654672623
1772884840805431600,7.505431640625,5.234299659729004,2.1164517402648926,-0.13698910176753998
1772884840822038500,7.52203857421875,4.11505651473999,2.3575284481048584,-0.1333998590707779
1772884840838645000,7.53864501953125,3.680161237716675,2.338984251022339,-0.13160525262355804
1772884840855252200,7.555252197265625,3.4378879070281982,2.0333011150360107,-0.0029910283628851175
1772884840871859500,7.571859375,3.659224033355713,2.1990039348602295,-0.06999006122350693
1772884840888468700,7.58846875,4.241278171539307,2.737389087677002,-0.1746760457754135
1772884840905054700,7.6050546875,5.322235584259033,3.7698919773101807,-0.9625129103660583
1772884840921683200,7.62168310546875,7.10429048538208,5.197210788726807,-1.693520188331604
1772884840938287000,7.638287109375,8.46760082244873,6.6592254638671875,-1.8963119983673096
1772884840954894300,7.654894287109375,8.155936241149902,7.929215908050537,-1.9615163803100586
1772884840971514000,7.67151416015625,7.685148239135742,8.605786323547363,-1.0402796268463135
1772884840988125000,7.688125,8.69910717010498,8.23968505859375,0.013160524889826775
1772884841004730600,7.704730712890625,10.767702102661133,7.509275436401367,-0.41994038224220276
1772884841021336800,7.7213369140625,12.141779899597168,7.22034215927124,-1.8837496042251587
1772884841037943000,7.737943115234375,11.793025970458984,7.789834022521973,-2.375474691390991
1772884841054549800,7.7545498046875,10.380064964294434,8.587242126464844,-1.6773686408996582
1772884841071155700,7.77115576171875,9.42473030090332,9.208778381347656,-1.1126625537872314
1772884841087765800,7.787765869140625,9.868000984191895,8.852845191955566,-0.8979067206382751
1772884841104371200,7.80437109375,10.780862808227539,7.440482139587402,-0.7603194117546082
1772884841120979700,7.820979736328125,11.22233772277832,5.738586902618408,-0.3595215976238251
1772884841137567500,7.8375673828125,10.645668029785156,4.8089752197265625,0.18723836541175842
1772884841154192400,7.8541923828125,9.90568733215332,4.487739086151123,1.0259226560592651
1772884841170798600,7.870798583984375,8.745168685913086,4.533202648162842,1.5445669889450073
1772884841187411200,7.8874111328125,7.978867053985596,3.995415687561035,1.339382529258728
1772884841204014300,7.904014404296875,7.865208148956299,3.25663161277771,0.7986045479774475
1772884841220615000,7.920614990234375,7.891529083251953,2.4155545234680176,0.15613168478012085
1772884841237227000,7.93722705078125,7.454838752746582,1.801795482635498,-0.26201409101486206
1772884841253838800,7.9538388671875,6.553342819213867,1.6390835046768188,-0.3008974492549896
1772884841270429400,7.970429443359375,5.774479389190674,1.906481385231018,-0.1417747437953949
1772884841287052300,7.98705224609375,5.438885688781738,2.181057929992676,-0.15672987699508667
1772884841303641900,8.003641845703125,5.312066078186035,2.3611178398132324,-0.7286145091056824
1772884841320248600,8.02024853515625,4.750949382781982,2.7798616886138916,-1.1623135805130005
1772884841336855600,8.03685546875,4.455435752868652,4.045066833496094,-1.797009825706482
1772884841353462800,8.053462890625,5.178068161010742,5.194219589233398,-2.108675003051758
1772884841370069800,8.07006982421875,6.739983081817627,5.913262844085693,-1.9256240129470825
1772884841386679000,8.086678955078124,7.827520847320557,6.2500529289245605,-0.6855437159538269
1772884841403284700,8.10328466796875,8.517850875854492,6.26440954208374,0.23389841616153717
1772884841419887400,8.119887451171875,9.583852767944336,5.793622016906738,-0.5168496966362
1772884841436498000,8.136497802734375,9.799206733703613,5.882754325866699,-1.7515461444854736
1772884841453104600,8.153104736328125,9.270393371582031,6.973881721496582,-1.9268203973770142
1772884841469715200,8.169715087890625,9.189635276794434,8.145766258239746,-1.3106685876846313
1772884841486327600,8.18632763671875,9.268598556518555,8.650651931762695,-0.9343972206115723
1772884841502941400,8.20294140625,10.241280555725098,8.68774127960205,-0.6717849373817444
1772884841519547600,8.219547607421875,12.250653266906738,8.465208053588867,-0.6269195079803467
1772884841536154000,8.236154052734374,13.832907676696777,7.517052173614502,-1.451246976852417
1772884841552760600,8.252760498046875,13.954941749572754,6.281757831573486,-1.7670994997024536
1772884841569364000,8.269364013671876,12.69153118133545,5.539384365081787,-0.97148597240448
1772884841585976000,8.28597607421875,10.152148246765137,5.067399978637695,0.13938191533088684
1772884841602582500,8.30258251953125,7.408777236938477,4.66779899597168,0.9074779748916626
1772884841619191000,8.31919091796875,5.673980712890625,3.9702908992767334,0.7447660565376282
1772884841635796200,8.335796142578126,6.37747049331665,3.1716864109039307,-0.0975075215101242
1772884841652402400,8.35240234375,7.883154392242432,2.500499725341797,-0.8715856671333313
1772884841669006000,8.369006103515625,8.691927909851074,2.1756739616394043,-1.0648061037063599
1772884841685624300,8.385624267578125,8.306085586547852,2.0650060176849365,-0.3696911036968231
1772884841702223400,8.402223388671874,6.762714862823486,2.186441659927368,0.2997010350227356
1772884841718829600,8.41882958984375,5.493920803070068,2.5393829345703125,0.5150550603866577
1772884841735437300,8.435437255859375,4.822135925292969,2.5250260829925537,0.23688943684101105
1772884841752044500,8.45204443359375,4.812564373016357,2.4227328300476074,-0.14656038582324982
1772884841768644000,8.46864404296875,5.937789440155029,2.8241288661956787,-0.32721850275993347
1772884841785251000,8.4852509765625,7.9280195236206055,3.3242287635803223,-0.36311084032058716
1772884841801850600,8.5018505859375,9.561718940734863,4.299304008483887,-0.9535398483276367
1772884841818459400,8.51845947265625,8.796015739440918,5.30129861831665,-1.0133603811264038
1772884841835066000,8.535066162109375,7.429116249084473,6.678368091583252,-0.34995031356811523
1772884841851673000,8.551673095703125,6.865008354187012,7.060023307800293,0.794417142868042
1772884841868280000,8.568280029296876,7.485945701599121,6.882954120635986,1.5882359743118286
1772884841884887000,8.584886962890625,8.701499938964844,6.803991317749023,0.6047859191894531
1772884841901494300,8.601494384765624,9.126823425292969,6.661618232727051,-1.368694543838501
1772884841918101500,8.6181015625,9.032307624816895,7.2430739402771,-2.3874387741088867
1772884841934708500,8.63470849609375,9.021539688110352,8.160123825073242,-2.1607189178466797
1772884841951315000,8.65131494140625,8.817551612854004,8.318648338317871,-1.3549357652664185
1772884841967935500,8.667935546875,9.040083885192871,8.346165657043457,-0.9014959335327148
1772884841984547300,8.68454736328125,9.923035621643066,7.949554920196533,-0.9912267923355103
1772884842001150200,8.701150146484375,11.566306114196777,7.265805721282959,-1.2203395366668701
1772884842017757400,8.71775732421875,12.747762680053711,6.969694137573242,-1.425524115562439
1772884842034364200,8.7343642578125,11.605788230895996,6.546164512634277,-0.9104689955711365
1772884842050970600,8.750970703125,9.460622787475586,6.086742401123047,-0.1986042857170105
1772884842067575800,8.767575927734375,8.053044319152832,5.282155990600586,0.9511470198631287
1772884842084188000,8.78418798828125,7.238886833190918,4.370490550994873,1.8819550275802612
1772884842100792300,8.800792236328125,6.743572235107422,3.315255880355835,2.1158533096313477
1772884842117399300,8.8173994140625,6.309275150299072,2.5872395038604736,1.654038667678833
1772884842134006300,8.83400634765625,6.22492790222168,1.932802438735962,0.778863787651062
1772884842150613000,8.850613037109374,6.100501537322998,1.4626128673553467,0.18783657252788544
1772884842167221800,8.8672216796875,5.396413326263428,1.3483555316925049,-0.24406790733337402
1772884842183826200,8.883826171875,4.537988185882568,1.5672988891601562,-0.6681957244873047
1772884842200434200,8.90043408203125,3.871587038040161,1.7874385118484497,-0.9732806086540222
1772884842217041200,8.917041259765625,3.576671600341797,2.2534406185150146,-1.561316728591919
1772884842233648000,8.933648193359375,4.048655986785889,3.2141590118408203,-1.9878374338150024
1772884842250254800,8.9502548828125,4.910071849822998,4.223930358886719,-1.9848463535308838
1772884842266858500,8.9668583984375,6.480959892272949,5.248058319091797,-1.6707884073257446
1772884842283456300,8.983456298828125,8.550153732299805,5.80199670791626,-0.5491527915000916
1772884842300063000,9.00006298828125,9.863214492797852,5.883352756500244,0.02751746028661728
1772884842316670000,9.016669921875,9.909276962280273,5.928217887878418,-0.13040883839130402
1772884842333276700,9.033276611328125,9.701101303100586,6.86381196975708,-0.7585247755050659
1772884842349884000,9.0498837890625,8.769096374511719,7.6013994216918945,-2.077568292617798
1772884842366490400,9.066490478515625,8.784649848937988,7.9968132972717285,-2.954537868499756
1772884842383097900,9.083097900390625,10.491331100463867,8.359326362609863,-2.956930637359619
1772884842399704600,9.09970458984375,12.382857322692871,7.887341499328613,-1.8376877307891846
1772884842416307700,9.1163076171875,13.066007614135742,7.2197442054748535,-1.7934205532073975
1772884842432923000,9.1329228515625,12.154342651367188,6.786643028259277,-2.6763720512390137
1772884842449528800,9.14952880859375,9.894919395446777,6.754938125610352,-2.9413771629333496
1772884842466142700,9.166142822265625,8.943174362182617,8.225926399230957,-1.4997016191482544
1772884842482757400,9.18275732421875,6.586244106292725,7.459026336669922,-0.4259224236011505
1772884842499360300,9.1993603515625,4.650450706481934,6.942774772644043,-0.12681959569454193
1772884842515967700,9.2159677734375,4.753940582275391,5.724828243255615,-0.2273181527853012
