time,seconds_elapsed,z,y,x
1772884875032374000,0.2553740234375,0.2424020767211914,-0.03628349304199219,0.06015321612358093
1772884875048984000,0.271984130859375,0.22316932678222656,-0.09911918640136719,0.020877987146377563
1772884875065587700,0.288587646484375,-0.10488319396972656,-0.046321868896484375,-0.06895506381988525
1772884875082193200,0.305193115234375,-0.4837989807128906,0.048143863677978516,-0.10246807336807251
1772884875098801200,0.32180126953125,-0.530860424041748,0.14503955841064453,-0.04808616638183594
1772884875115405600,0.338405517578125,-0.24217510223388672,0.040827274322509766,-0.08497130870819092
1772884875132018000,0.355017822265625,0.040424346923828125,-0.09519386291503906,-0.17776302993297577
1772884875148619300,0.371619384765625,0.2813148498535156,-0.14114999771118164,-0.22808922827243805
1772884875165212000,0.3882119140625,0.3645620346069336,-0.1863260269165039,-0.3005426526069641
1772884875181837000,0.404837158203125,0.4360466003417969,-0.16889619827270508,-0.328558087348938
1772884875198441500,0.42144140625,0.4277524948120117,-0.16136503219604492,-0.26146653294563293
1772884875215034600,0.43803466796875,0.21641826629638672,-0.05236673355102539,-0.20867961645126343
1772884875231657700,0.45465771484375,-0.011052131652832031,-0.032253265380859375,-0.17727261781692505
1772884875248260400,0.47126025390625,-0.07534313201904297,0.005157470703125,-0.14795581996440887
1772884875264876000,0.4878759765625,-0.08711433410644531,-0.002513885498046875,-0.20521850883960724
1772884875281468200,0.50446826171875,-0.08635139465332031,-0.016324520111083984,-0.230764701962471
1772884875298082000,0.52108203125,-0.03337383270263672,-0.040200233459472656,-0.2105187177658081
1772884875314689000,0.53768896484375,0.04962730407714844,-0.07043075561523438,-0.14717607200145721
1772884875331296300,0.554296142578125,-0.03771400451660156,-0.04868459701538086,-0.10463181138038635
1772884875347904300,0.570904296875,-0.20094013214111328,-0.005560398101806641,-0.14002472162246704
1772884875364509400,0.587509521484375,-0.1859583854675293,-0.028099536895751953,-0.15260764956474304
1772884875381115000,0.604114990234375,-0.1343069076538086,-0.06223630905151367,-0.12479713559150696
1772884875397724400,0.620724365234375,-0.15717315673828125,-0.04308462142944336,-0.08098408579826355
1772884875414313700,0.637313720703125,-0.2174825668334961,-0.0031499862670898438,-0.025507450103759766
1772884875430925600,0.653925537109375,-0.3189229965209961,-0.0028433799743652344,0.001479417085647583
1772884875447529700,0.67052978515625,-0.2336721420288086,-0.0013480186462402344,0.03173106908798218
1772884875464138500,0.687138427734375,-0.05481433868408203,-0.030770301818847656,0.1131020188331604
1772884875480745200,0.7037451171875,0.10823631286621094,-0.06923961639404297,0.156198650598526
1772884875497351400,0.720351318359375,0.27208805084228516,-0.1064448356628418,0.12465828657150269
1772884875513961200,0.736961181640625,0.4045839309692383,-0.0641622543334961,0.06149965524673462
1772884875530567200,0.753567138671875,0.26806163787841797,-0.08138132095336914,-0.09539301693439484
1772884875547187000,0.77018701171875,-0.05876731872558594,-0.011405467987060547,-0.23059415817260742
1772884875563794000,0.7867939453125,-0.4242677688598633,0.06915664672851562,-0.30300289392471313
1772884875580398000,0.803398193359375,-0.45056724548339844,0.1107945442199707,-0.3019648790359497
1772884875596991200,0.8199912109375,-0.14119434356689453,0.06610965728759766,-0.22102998197078705
1772884875613613600,0.836613525390625,0.1742563247680664,-0.061324119567871094,-0.22939129173755646
1772884875630205400,0.853205322265625,0.210723876953125,-0.1538991928100586,-0.2997022569179535
1772884875646822000,0.86982177734375,-0.05398845672607422,-0.16183900833129883,-0.2800448536872864
1772884875663437800,0.886437744140625,-0.3210277557373047,-0.11962318420410156,-0.23962393403053284
1772884875680063700,0.903063720703125,-0.5430688858032227,-0.12279129028320312,-0.3173503875732422
1772884875696646100,0.919646240234375,-0.7517776489257812,-0.1811199188232422,-0.48661428689956665
1772884875713254700,0.936254638671875,-0.9603977203369141,-0.17711400985717773,-0.5530780553817749
1772884875729843700,0.95284375,-1.0770378112792969,-0.1477198600769043,-0.4402575194835663
1772884875746463000,0.969462890625,-1.0297656059265137,-0.1623539924621582,-0.1275508850812912
1772884875763083000,0.9860830078125,-1.0541400909423828,-0.19545936584472656,0.3749580383300781
1772884875779682600,1.0026826171875,-1.3541803359985352,-0.21219968795776367,1.1456571817398071
1772884875796287500,1.01928759765625,-1.764169692993164,0.018816471099853516,2.0585556030273438
1772884875812896000,1.03589599609375,-1.1769371032714844,0.254056453704834,2.479151487350464
1772884875829502700,1.052502685546875,0.1272144317626953,-0.40254783630371094,2.3128883838653564
1772884875846109400,1.069109375,0.7971687316894531,-0.8829574584960938,1.9833483695983887
1772884875862717700,1.0857177734375,0.9251613616943359,-0.9233050346374512,1.6568230390548706
1772884875879322400,1.102322265625,0.8635196685791016,-1.0452864170074463,1.4887104034423828
1772884875895928600,1.118928466796875,0.6113052368164062,-1.1186466217041016,1.3167763948440552
1772884875912520000,1.13552001953125,0.4586906433105469,-1.1694598197937012,1.0740431547164917
1772884875929131800,1.1521318359375,0.1673288345336914,-1.20328688621521,0.7203458547592163
1772884875945738500,1.168738525390625,-0.06789970397949219,-1.186852216720581,0.45945030450820923
1772884875962344700,1.1853447265625,-0.33909130096435547,-1.2180054187774658,0.2656598687171936
1772884875978954500,1.20195458984375,-0.545619010925293,-1.2331962585449219,0.0067462921142578125
1772884875995560200,1.218560302734375,-0.4991130828857422,-1.260484218597412,-0.21965718269348145
1772884876012162600,1.23516259765625,-0.44699764251708984,-1.3851497173309326,-0.5809400081634521
1772884876028773400,1.2517734375,-0.36623573303222656,-1.3962125778198242,-0.9690883159637451
1772884876045391400,1.268391357421875,-0.45732593536376953,-1.2820558547973633,-1.3583197593688965
1772884876061994200,1.284994140625,-0.5930533409118652,-1.191263198852539,-1.6939321756362915
1772884876078604800,1.301604736328125,-0.6648621559143066,-1.0998327732086182,-2.1200008392333984
1772884876095211500,1.31821142578125,-0.9673051834106445,-0.9205813407897949,-2.5523886680603027
1772884876111825700,1.33482568359375,-1.5581588745117188,-0.7059793472290039,-2.911396026611328
1772884876128410400,1.351410400390625,-2.1295766830444336,-0.38618040084838867,-3.003034830093384
1772884876145040600,1.36804052734375,-2.6350231170654297,0.009787559509277344,-2.9431819915771484
1772884876161646000,1.38464599609375,-2.9046812057495117,0.30791521072387695,-2.9221982955932617
1772884876178231600,1.4012314453125,-3.064274787902832,0.6041214466094971,-2.905905246734619
1772884876194851000,1.41785107421875,-3.3323330879211426,0.8713147640228271,-2.708707809448242
1772884876211462100,1.434462158203125,-3.212832450866699,1.1030802726745605,-2.2441275119781494
1772884876228084000,1.451083984375,-2.5591840744018555,1.202577829360962,-1.6385643482208252
1772884876244680200,1.46768017578125,-1.4720592498779297,1.3820469379425049,-1.0728771686553955
1772884876261280800,1.48428076171875,-0.023697853088378906,1.733469009399414,-0.9087313413619995
1772884876277887200,1.50088720703125,1.9070844650268555,2.196773052215576,-0.8087384700775146
1772884876294494200,1.517494140625,3.7872753143310547,2.841500997543335,-0.8475116491317749
1772884876311100000,1.534099853515625,5.305808067321777,3.624629259109497,-1.7026385068893433
1772884876327688000,1.55068798828125,6.3203630447387695,4.375114917755127,-2.3402857780456543
1772884876344314600,1.567314697265625,6.837780952453613,4.722407341003418,-1.7128031253814697
1772884876360927000,1.583927001953125,9.073922157287598,4.795676231384277,0.15774273872375488
1772884876377531400,1.600531494140625,13.218467712402344,3.730743885040283,1.6418368816375732
1772884876394124300,1.617124267578125,16.47806167602539,1.7977957725524902,2.266543388366699
1772884876410726400,1.633726318359375,16.822078704833984,0.01459956169128418,2.7578444480895996
1772884876427333400,1.65033349609375,13.49323558807373,-0.8569836616516113,3.4482178688049316
1772884876443945200,1.6669453125,7.887204170227051,-0.5137436389923096,3.962324619293213
1772884876460551700,1.6835517578125,2.7634057998657227,0.2655348777770996,3.9704020023345947
1772884876477155000,1.700155029296875,-0.23726844787597656,0.46131181716918945,3.567197799682617
1772884876493764400,1.716764404296875,-1.5691595077514648,-0.08696460723876953,2.6684365272521973
1772884876510370800,1.733370849609375,-2.28134822845459,-0.9223132133483887,1.4075913429260254
1772884876526985700,1.74998583984375,-3.0439376831054688,-1.651780605316162,0.0438770055770874
1772884876543601000,1.766600830078125,-3.96030855178833,-2.0602023601531982,-0.7864959239959717
1772884876560176000,1.783176025390625,-5.194169998168945,-2.1953368186950684,-0.7168470621109009
1772884876576810000,1.79981005859375,-6.662862777709961,-2.158644676208496,-0.5188868045806885
1772884876593418200,1.816418212890625,-7.534485816955566,-2.235924482345581,-0.786607027053833
1772884876610045200,1.833045166015625,-7.2529497146606445,-2.7577548027038574,-1.3660190105438232
1772884876626631000,1.849630859375,-6.690988540649414,-3.1245131492614746,-1.7533427476882935
1772884876643239200,1.8662392578125,-6.200915336608887,-3.35636305809021,-1.5102636814117432
1772884876659838200,1.882838134765625,-6.226861476898193,-3.3613903522491455,-0.8008975982666016
1772884876676457200,1.899457275390625,-6.713118553161621,-3.3918190002441406,-0.4006984829902649
1772884876693068000,1.916068115234375,-6.922006607055664,-3.348048686981201,-0.2994691729545593
1772884876709667600,1.93266748046875,-6.6086835861206055,-3.0177252292633057,-0.46099549531936646
1772884876726292700,1.949292724609375,-5.492555618286133,-2.6793689727783203,-0.6192889213562012
1772884876742882300,1.96588232421875,-2.6499195098876953,-2.103309154510498,-0.6271277666091919
1772884876759485200,1.982485107421875,2.4181365966796875,-0.9149799346923828,-0.3215629756450653
1772884876776094200,1.99909423828125,7.519136428833008,0.21717596054077148,0.09976357221603394
1772884876792700700,2.01570068359375,8.372236251831055,1.3168253898620605,-0.1278030276298523
1772884876809306400,2.032306396484375,3.5497279167175293,1.6133322715759277,-0.8119201064109802
1772884876825900500,2.048900634765625,-0.09319019317626953,1.928421974182129,-0.8639739155769348
1772884876842521600,2.065521484375,3.320326805114746,1.4015135765075684,0.417572021484375
1772884876859128000,2.082128173828125,8.227241516113281,0.5452160835266113,0.972096860408783
1772884876875734500,2.098734619140625,9.136699676513672,0.6553902626037598,0.5146411061286926
1772884876892340000,2.115340087890625,5.606500148773193,1.5158910751342773,-0.11451303958892822
1772884876908935700,2.131935791015625,0.8929171562194824,2.4759774208068848,-0.5890494585037231
1772884876925543400,2.14854345703125,-3.3233261108398438,2.612544059753418,0.08441698551177979
1772884876942148000,2.165148193359375,-5.525453567504883,1.8253264427185059,0.7073999643325806
1772884876958784500,2.181784423828125,-5.305269241333008,0.4249720573425293,0.24447029829025269
1772884876975362600,2.198362548828125,-3.2827653884887695,-0.7055606842041016,-0.9390174150466919
1772884876991959800,2.214959716796875,-0.8331189155578613,-1.5140337944030762,-1.0743615627288818
1772884877008575500,2.231575439453125,-0.09110546112060547,-1.5550768375396729,-0.22794653475284576
1772884877025184300,2.248184326171875,-0.9810476303100586,-1.215625286102295,0.7113456726074219
1772884877041790200,2.264790283203125,-2.6861491203308105,-1.0667896270751953,1.0605237483978271
1772884877058396400,2.281396484375,-4.1418962478637695,-1.5544331073760986,0.6216719746589661
1772884877075015700,2.298015625,-5.298496246337891,-2.3290352821350098,-0.30530011653900146
1772884877091615200,2.314615234375,-6.037220478057861,-2.7426209449768066,-1.2335513830184937
1772884877108227300,2.331227294921875,-6.410706043243408,-3.0997323989868164,-1.8862338066101074
1772884877124823000,2.347822998046875,-6.600253105163574,-3.3915963172912598,-2.3780951499938965
1772884877141442600,2.364442626953125,-6.263063430786133,-3.597273588180542,-2.684521198272705
1772884877158053400,2.381053466796875,-5.312040328979492,-3.3707218170166016,-2.284759759902954
1772884877174649300,2.3976494140625,-3.1042861938476562,-2.932141065597534,-1.2583667039871216
1772884877191264800,2.4142646484375,1.215195655822754,-2.4364051818847656,0.2014983892440796
1772884877207875000,2.430875,6.694159507751465,-1.5322213172912598,1.7270970344543457
1772884877224459000,2.447458984375,10.22572135925293,-0.7003912925720215,2.10591459274292
1772884877241076000,2.464075927734375,10.431877136230469,0.4176812171936035,0.2770022451877594
1772884877257701400,2.480701416015625,6.697456359863281,2.5719337463378906,-1.868975281715393
1772884877274274600,2.497274658203125,3.782473564147949,4.980189800262451,-2.1451423168182373
1772884877290908000,2.513907958984375,4.242372512817383,5.569701194763184,-0.7554024457931519
1772884877307511300,2.53051123046875,5.662660598754883,4.8429789543151855,0.4349788725376129
1772884877324107800,2.547107666015625,6.018010139465332,4.0822649002075195,0.5942105650901794
1772884877340728800,2.563728759765625,5.5900468826293945,2.564542293548584,-0.022200383245944977
1772884877357332500,2.58033251953125,4.476619720458984,0.6868233680725098,-0.2244301438331604
1772884877373906200,2.59690625,2.0617733001708984,-0.6690158843994141,0.1630934476852417
1772884877390534400,2.613534423828125,-0.8645839691162109,-1.2594070434570312,0.6012302041053772
1772884877407139300,2.630139404296875,-2.915419578552246,-1.570810317993164,0.738326907157898
1772884877423748900,2.646748779296875,-3.55841064453125,-1.3186864852905273,0.2304694652557373
1772884877440355000,2.66335498046875,-3.000558376312256,-0.7485756874084473,-0.614112138748169
1772884877456965400,2.67996533203125,-2.6462950706481934,-0.5739140510559082,-0.8862056732177734
1772884877473568300,2.696568359375,-3.228851318359375,-0.3128800392150879,-0.7237679362297058
1772884877490177300,2.71317724609375,-4.78739595413208,0.15610694885253906,-0.48137420415878296
1772884877506796800,2.729796875,-6.478921890258789,0.3685784339904785,-0.23621110618114471
1772884877523387400,2.746387451171875,-7.796882629394531,0.39237523078918457,0.08626213669776917
1772884877539993600,2.76299365234375,-8.623709678649902,0.46082186698913574,0.16964997351169586
1772884877556608000,2.77960791015625,-8.783777236938477,0.711554765701294,0.44713151454925537
1772884877573230600,2.796230712890625,-8.141401290893555,1.050865650177002,0.9867838025093079
1772884877589821400,2.812821533203125,-6.59054708480835,1.669344425201416,2.000162124633789
1772884877606432800,2.829432861328125,-3.9351181983947754,2.405032157897949,3.053812026977539
1772884877623033900,2.846033935546875,-0.22449493408203125,2.9997241497039795,3.082581043243408
1772884877639650300,2.862650390625,5.168473243713379,3.294607400894165,2.1286654472351074
1772884877656256300,2.87925634765625,10.575039863586426,3.368497371673584,0.5700737833976746
1772884877672855800,2.895855712890625,12.979020118713379,4.055005073547363,-1.140445351600647
1772884877689463600,2.912463623046875,10.776784896850586,5.4513139724731445,-1.498520016670227
1772884877706078700,2.92907861328125,7.307299613952637,5.888915061950684,-1.0449573993682861
1772884877722685700,2.945685791015625,7.154886245727539,5.236967086791992,-1.3354092836380005
1772884877739291000,2.962290771484375,11.13125228881836,3.3721532821655273,-1.9594957828521729
1772884877755898000,2.978898193359375,14.184111595153809,1.0935554504394531,-2.3401710987091064
1772884877772518700,2.9955185546875,11.930039405822754,0.026710033416748047,-2.721355676651001
1772884877789112000,3.012112060546875,6.580491065979004,-0.38687944412231445,-2.289682388305664
1772884877805719600,3.028719482421875,1.1001462936401367,-0.49300622940063477,-1.1017893552780151
1772884877822341600,3.045341552734375,-3.1944031715393066,-0.6368908882141113,0.04265111684799194
1772884877838932000,3.061931884765625,-4.849366188049316,-1.1684598922729492,0.5731417536735535
1772884877855540700,3.078540771484375,-3.709232807159424,-2.0785164833068848,0.36004185676574707
1772884877872146700,3.095146728515625,-1.8456611633300781,-2.6478543281555176,0.10405325889587402
1772884877888739300,3.1117392578125,-1.3644113540649414,-3.123274803161621,-0.06229591369628906
1772884877905346800,3.128346923828125,-2.7326745986938477,-3.250670909881592,-0.033233642578125
1772884877921958000,3.1449580078125,-4.545183181762695,-3.3946449756622314,-0.025929570198059082
1772884877938556400,3.161556396484375,-6.094899654388428,-3.567568063735962,-0.3898463249206543
1772884877955171600,3.178171630859375,-7.157336235046387,-3.7978298664093018,-1.0586867332458496
1772884877978007300,3.20100732421875,-7.124997138977051,-4.287761688232422,-1.8565378189086914
1772884877994602800,3.217602783203125,-7.095276832580566,-4.320862293243408,-1.5439424514770508
1772884878011217700,3.2342177734375,-7.033757209777832,-4.0998640060424805,-1.1717785596847534
1772884878027824400,3.250824462890625,-6.6563520431518555,-3.6901116371154785,-0.6814140677452087
1772884878044418600,3.26741845703125,-5.0300188064575195,-3.1576526165008545,0.25158384442329407
1772884878061038300,3.284038330078125,-1.7589020729064941,-2.4153952598571777,1.249812126159668
1772884878077645000,3.30064501953125,2.1121935844421387,-1.8427367210388184,1.1464967727661133
1772884878094268200,3.31726806640625,6.104717254638672,-1.4844942092895508,0.3998008668422699
1772884878110872600,3.33387255859375,7.711706161499023,-0.6538376808166504,-0.05750492960214615
1772884878127479300,3.350479248046875,5.878222465515137,1.1861443519592285,-0.2672460675239563
1772884878144066000,3.367066162109375,3.2394847869873047,2.452418804168701,0.19079868495464325
1772884878160675600,3.383675537109375,1.1492161750793457,2.4614334106445312,0.006315939128398895
1772884878177300000,3.400300048828125,0.6623282432556152,2.488039970397949,-0.17221960425376892
1772884878193908500,3.416908447265625,-0.03842592239379883,2.5781779289245605,-0.33348581194877625
1772884878210514400,3.433514404296875,0.6978816986083984,3.089651584625244,0.0475025400519371
1772884878227121000,3.450120849609375,3.187206745147705,3.285824775695801,0.087598517537117
1772884878243727400,3.466727294921875,5.236276626586914,3.2012739181518555,-0.21172305941581726
1772884878260345900,3.483345947265625,5.154494762420654,2.244882106781006,0.5221499800682068
1772884878276926000,3.499926025390625,2.7755980491638184,1.1245989799499512,1.0448520183563232
1772884878293534200,3.5165341796875,-0.11849117279052734,-0.30391645431518555,0.853796660900116
1772884878310141400,3.533141357421875,-2.4253649711608887,-1.4676690101623535,0.2798769772052765
1772884878326748200,3.549748046875,-2.9608511924743652,-1.7842066287994385,-0.3385685086250305
1772884878343355000,3.56635498046875,-1.0090861320495605,-2.196268320083618,-0.6943941116333008
1772884878359948500,3.582948486328125,-1.2542061805725098,-1.77923583984375,-0.3361745774745941
1772884878376569000,3.599569091796875,-3.147372245788574,-1.1526014804840088,-0.12702366709709167
1772884878393175800,3.61617578125,-4.737737655639648,-0.8408770561218262,-0.2723020613193512
1772884878409782800,3.63278271484375,-5.146391868591309,-0.9179518222808838,-0.5958702564239502
1772884878426389000,3.649388916015625,-4.5486226081848145,-1.3166942596435547,-0.5866955518722534
1772884878442996000,3.665995849609375,-4.0419111251831055,-1.5971744060516357,-0.35881471633911133
1772884878459596500,3.682596435546875,-4.152181625366211,-1.6870181560516357,-0.06732021272182465
1772884878476210200,3.699210205078125,-4.319365501403809,-1.7634387016296387,0.10667361319065094
1772884878492827400,3.715827392578125,-4.722200870513916,-1.7728745937347412,0.019350603222846985
1772884878526031000,3.749031005859375,-1.0664911270141602,-1.1413559913635254,0.19354037940502167
1772884878542637300,3.76563720703125,3.3507394790649414,-0.27527856826782227,0.04266366362571716
1772884878559224800,3.782224853515625,6.296614646911621,0.5707540512084961,-0.08569228649139404
1772884878575851000,3.79885107421875,3.9739608764648438,2.038771152496338,-0.8442271947860718
1772884878592457700,3.815457763671875,-0.2244863510131836,3.210205078125,-1.425296425819397
1772884878609065000,3.83206494140625,-3.554551124572754,3.8625731468200684,-2.5925893783569336
1772884878625672000,3.848671875,-2.4518628120422363,3.8211140632629395,-3.6774582862854004
1772884878642292000,3.8652919921875,1.6717991828918457,3.0863208770751953,-2.8231747150421143
1772884878658899200,3.881899169921875,6.44178581237793,2.450380802154541,-1.0070394277572632
1772884878675506000,3.898505859375,11.406612396240234,2.3748412132263184,-0.11036854982376099
1772884878692124400,3.91512451171875,11.451943397521973,2.631058692932129,0.011094674468040466
1772884878708703000,3.931702880859375,6.334166526794434,2.795234203338623,0.5116634964942932
1772884878725325600,3.94832568359375,1.050297737121582,2.084799289703369,1.2949399948120117
1772884878741930500,3.964930419921875,-2.4228081703186035,1.0263137817382812,1.3543717861175537
1772884878758531800,3.98153173828125,-3.1829991340637207,-0.08622264862060547,0.6153694987297058
1772884878775146800,3.998146728515625,-0.4807157516479492,-1.2091169357299805,-0.7576301693916321
1772884878791740700,4.01474072265625,0.9914455413818359,-2.0564990043640137,-1.9561505317687988
1772884878808361000,4.03136083984375,-0.37699317932128906,-2.015763759613037,-2.1610541343688965
1772884878824959200,4.047959228515625,-3.3937783241271973,-1.7056598663330078,-1.5881268978118896
1772884878841579000,4.0645791015625,-6.21846866607666,-1.713869571685791,-1.1366138458251953
1772884878858181600,4.081181640625,-7.922152996063232,-1.9722909927368164,-1.0081158876419067
1772884878874772700,4.097772705078125,-7.508945941925049,-2.3883097171783447,-1.1194727420806885
1772884878891364400,4.1143642578125,-5.97982931137085,-3.083170175552368,-1.1158599853515625
1772884878907987000,4.130987060546875,-5.078342437744141,-3.347792625427246,-0.8162792325019836
1772884878924595200,4.14759521484375,-4.936317443847656,-3.584481954574585,-0.31124287843704224
1772884878941202200,4.1642021484375,-4.287173271179199,-3.7503061294555664,0.14369027316570282
1772884878957809000,4.180808837890625,-2.2103757858276367,-3.696044683456421,0.2151651680469513
1772884878974413800,4.197413818359375,1.3674554824829102,-3.0040555000305176,0.2921787202358246
1772884878991012600,4.2140126953125,4.656571388244629,-2.566582679748535,0.4602264165878296
1772884879007628000,4.2306279296875,5.249860763549805,-1.8828117847442627,0.6027193069458008
1772884879024236000,4.247236083984375,2.7859959602355957,-0.8104476928710938,0.2166866809129715
1772884879040843300,4.26384326171875,0.5113115310668945,0.5193562507629395,0.4261353015899658
1772884879057450000,4.280449951171875,0.9307937622070312,0.7147431373596191,0.6312217712402344
1772884879074056700,4.297056640625,3.424886703491211,0.05111551284790039,0.6608865261077881
1772884879090662000,4.313661865234375,7.101905822753906,0.25282716751098633,1.4328747987747192
1772884879107284500,4.330284423828125,7.914633750915527,0.9058718681335449,1.6486314535140991
1772884879123889700,4.3468896484375,5.158209800720215,1.2142400741577148,0.11727660894393921
1772884879140499500,4.36349951171875,2.3853530883789062,1.074075698852539,-0.412730872631073
1772884879157105000,4.38010498046875,0.2628211975097656,1.444429636001587,0.460073322057724
1772884879173711400,4.39671142578125,-1.6846003532409668,2.2150402069091797,1.3370479345321655
1772884879190318000,4.413318115234375,-2.777021884918213,2.602757215499878,1.4839222431182861
1772884879206909000,4.429908935546875,-2.6255388259887695,3.2068305015563965,0.5680309534072876
1772884879223532000,4.446531982421875,-2.152377128601074,3.682223320007324,-0.6056342720985413
1772884879240121000,4.46312109375,-1.6953563690185547,4.226180076599121,-2.222623109817505
1772884879256748000,4.479748046875,-1.505784034729004,4.866952419281006,-2.460254430770874
1772884879273353200,4.496353271484375,-2.177276611328125,5.501206874847412,-1.2597734928131104
1772884879289943800,4.51294384765625,-2.885756015777588,5.693578720092773,0.28864115476608276
1772884879306567000,4.52956689453125,-4.464715957641602,5.574832439422607,1.5087732076644897
1772884879323149000,4.546149169921875,-6.217461585998535,5.076200485229492,1.6845341920852661
1772884879339766300,4.562766357421875,-6.048234939575195,4.199942111968994,1.559363603591919
1772884879356374800,4.579374755859375,-3.14754581451416,3.2617669105529785,1.8975213766098022
1772884879372980200,4.595980224609375,1.124624252319336,2.000983953475952,2.4018075466156006
1772884879389587000,4.6125869140625,5.596062660217285,0.15975117683410645,2.286212921142578
1772884879406182100,4.62918212890625,10.27054214477539,-1.823401927947998,1.464483380317688
1772884879422800600,4.645800537109375,11.489322662353516,-2.7704248428344727,1.1840765476226807
1772884879439420700,4.662420654296875,7.453657150268555,-1.1313917636871338,1.2655012607574463
1772884879456030700,4.67903076171875,1.2471418380737305,1.9161999225616455,1.0762653350830078
1772884879472635100,4.69563525390625,-3.346810817718506,3.6334924697875977,2.397454261779785
1772884879524514600,4.7475146484375,20.26214599609375,-5.359797477722168,2.716247797012329
1772884879541136000,4.764135986328125,17.69318962097168,-4.8264570236206055,-1.6884446144104004
1772884879557748500,4.78074853515625,8.724059104919434,-2.4383223056793213,-3.8020389080047607
1772884879574344400,4.797344482421875,1.0825576782226562,-0.23087167739868164,-4.298745632171631
1772884879590956800,4.813956787109375,-3.1506004333496094,0.5893745422363281,-3.7695860862731934
1772884879607563500,4.8305634765625,-4.193365097045898,0.8121335506439209,-2.6996233463287354
1772884879624142000,4.84714208984375,-3.8562488555908203,0.8041994571685791,-1.7300331592559814
1772884879640777500,4.863777587890625,-4.640990257263184,1.1155762672424316,-1.2997825145721436
1772884879657382400,4.88038232421875,-5.84575080871582,1.3811416625976562,-1.06497323513031
1772884879673993700,4.89699365234375,-6.155999660491943,1.2115418910980225,-0.8598271012306213
1772884879690598000,4.913597900390625,-6.269471645355225,0.7935876846313477,-0.7430346608161926
1772884879707197200,4.930197265625,-6.485405445098877,0.20352888107299805,-0.599174976348877
1772884879723812000,4.94681201171875,-6.193507194519043,-0.4564938545227051,-0.23167090117931366
1772884879740402000,4.96340185546875,-6.6811933517456055,-1.1553726196289062,0.1343364268541336
1772884879757025000,4.98002490234375,-7.646411418914795,-1.5963771343231201,0.11738323420286179
1772884879773638000,4.996637939453125,-9.07445240020752,-1.9265316724777222,0.006005764007568359
1772884879790217000,5.013217041015625,-8.935713768005371,-1.8756248950958252,0.5036627650260925
1772884879806846200,5.02984619140625,-6.843911170959473,-1.8031318187713623,2.047818422317505
1772884879823435500,5.046435546875,-3.331209182739258,-1.4667878150939941,3.663088321685791
1772884879840023300,5.063023193359375,1.9515666961669922,-1.6460418701171875,4.813872814178467
1772884879856653000,5.079653076171875,8.79076862335205,-2.8453471660614014,4.5645036697387695
1772884879873262000,5.096261962890625,13.47407341003418,-4.600004196166992,2.7597415447235107
1772884879889864200,5.1128642578125,12.137824058532715,-3.9369497299194336,1.115230679512024
1772884879906473200,5.12947314453125,4.734363555908203,-0.9816079139709473,1.474676251411438
1772884879923083800,5.146083740234375,-4.428314208984375,2.675112247467041,2.2013585567474365
1772884879939684000,5.16268408203125,-6.20210599899292,2.6082749366760254,2.4984428882598877
1772884879956302000,5.179302001953125,2.694413185119629,-0.4997830390930176,2.6227777004241943
1772884879972916500,5.19591650390625,14.557570457458496,-4.148348808288574,2.696564197540283
1772884879989509400,5.21250927734375,16.780109405517578,-5.133946418762207,0.3443824052810669
1772884880006128400,5.22912841796875,9.427635192871094,-2.803191900253296,-0.7093339562416077
1772884880022734800,5.24573486328125,2.1723098754882812,-1.2953343391418457,0.03830885887145996
1772884880039325000,5.262324951171875,-1.6377716064453125,-0.5064394474029541,0.4784892797470093
1772884880055949000,5.278948974609375,-3.876992702484131,0.6732809543609619,0.1857123076915741
1772884880072552200,5.29555224609375,-5.372851371765137,1.368044376373291,-0.4459841847419739
1772884880089166000,5.312166015625,-5.46955680847168,1.7019567489624023,-1.2737464904785156
1772884880105769500,5.32876953125,-5.296350479125977,2.162437915802002,-1.9769237041473389
1772884880122376200,5.345376220703125,-5.634688854217529,2.401508092880249,-2.1998531818389893
1772884880138968600,5.361968505859375,-6.626208305358887,2.4389514923095703,-2.2358882427215576
1772884880155588400,5.37858837890625,-7.711360931396484,2.15478253364563,-2.496157646179199
1772884880172195600,5.395195556640625,-8.400535583496094,1.690798044204712,-2.826702833175659
1772884880188804900,5.411804931640625,-7.710373401641846,0.9627246856689453,-2.8815419673919678
1772884880205410800,5.428410888671875,-6.501834869384766,0.3137526512145996,-2.6168911457061768
1772884880222017300,5.445017333984375,-4.914187431335449,-0.4299006462097168,-1.7766674757003784
1772884880238607000,5.461607177734375,-2.5557985305786133,-0.7578072547912598,0.2235889732837677
1772884880255232000,5.47823193359375,2.0058717727661133,-1.3238236904144287,2.2194883823394775
1772884880271833600,5.49483349609375,8.931804656982422,-2.6894993782043457,2.6647138595581055
1772884880288448800,5.51144873046875,14.180747985839844,-4.428464889526367,1.57656729221344
1772884880305034500,5.528034423828125,13.596117973327637,-4.757966041564941,0.6910700798034668
1772884880321644800,5.544644775390625,7.738336563110352,-3.0656166076660156,0.8301684260368347
1772884880338262500,5.561262451171875,0.14170455932617188,-1.0104596614837646,2.6587138175964355
1772884880354856000,5.57785595703125,-0.41421985626220703,-0.8910880088806152,4.2735676765441895
1772884880371467800,5.5944677734375,8.319684028625488,-3.016817092895508,4.631772041320801
1772884880388072200,5.611072265625,15.511990547180176,-4.376308917999268,3.020327568054199
1772884880404679000,5.627678955078125,14.282702445983887,-2.7017080783843994,0.5563281774520874
1772884880421302500,5.644302490234375,8.772579193115234,-0.41431450843811035,-0.3918960690498352
1772884880437893000,5.66089306640625,3.8790369033813477,0.7024946212768555,-0.6697744131088257
1772884880454496800,5.677496826171875,0.7236804962158203,0.35043978691101074,-0.9645446538925171
1772884880471116300,5.6941162109375,-1.2789621353149414,0.05723381042480469,-0.955253541469574
1772884880487704000,5.7107041015625,-2.876934051513672,0.5232970714569092,-1.059921145439148
1772884880504333600,5.72733349609375,-3.642515182495117,1.3032243251800537,-1.472650408744812
1772884880520940800,5.74394091796875,-3.6707420349121094,1.6348235607147217,-2.0135512351989746
1772884880537530600,5.760530517578125,-4.07029914855957,1.8956828117370605,-2.5559439659118652
1772884880554154800,5.77715478515625,-5.4505157470703125,1.9999988079071045,-2.843003749847412
1772884880570756600,5.793756591796875,-7.069989204406738,1.913179636001587,-2.799388885498047
1772884880587376000,5.810376220703125,-8.225883483886719,1.706801414489746,-2.5570385456085205
1772884880603975200,5.82697509765625,-8.946009635925293,1.3818082809448242,-2.2787883281707764
1772884880620581600,5.84358154296875,-9.181446075439453,0.9448239803314209,-2.0806679725646973
1772884880637172500,5.86017236328125,-8.79895305633545,0.40584278106689453,-1.9079492092132568
1772884880653795800,5.8767958984375,-8.105051040649414,-0.1669149398803711,-1.3654820919036865
1772884880670399700,5.893399658203125,-6.906153678894043,-0.5161123275756836,-0.34079647064208984
1772884880687011300,5.91001123046875,-5.447383403778076,-0.5628924369812012,0.9564392566680908
1772884880703616000,5.926615966796875,-2.5589475631713867,-0.5575881004333496,2.3338100910186768
1772884880720222700,5.94322265625,3.144965171813965,-1.310323715209961,3.492302417755127
1772884880736841200,5.95984130859375,9.765083312988281,-3.008904457092285,3.471951961517334
1772884880753436700,5.976436767578125,13.753280639648438,-4.831739902496338,2.8903558254241943
1772884880770037800,5.993037841796875,11.812581062316895,-4.678621292114258,2.6399002075195312
1772884880786659000,6.0096591796875,6.313207626342773,-2.3287034034729004,2.771782159805298
1772884880803240200,6.026240234375,1.5174369812011719,-0.23925018310546875,3.2142794132232666
1772884880819840500,6.042840576171875,0.40421390533447266,-0.15529298782348633,2.5303432941436768
1772884880836449800,6.05944970703125,5.462187767028809,-1.6316547393798828,1.5020350217819214
1772884880853064200,6.076064208984375,10.78302001953125,-2.6320128440856934,0.9484865665435791
1772884880869671000,6.0926708984375,14.335428237915039,-1.9484577178955078,1.0918567180633545
1772884880886277400,6.10927734375,14.53884220123291,-1.27622652053833,1.1654815673828125
1772884880902884000,6.125884033203125,9.96863079071045,-0.42178916931152344,0.629908561706543
1772884880919508200,6.14250830078125,4.830021858215332,-0.0002529621124267578,0.029252290725708008
1772884880936109600,6.159109619140625,1.9585456848144531,-0.04334139823913574,-0.12965747714042664
1772884880952718600,6.175718505859375,-0.4750814437866211,0.3291764259338379,0.05249965190887451
1772884880969320000,6.19231982421875,-3.68505859375,0.8790457248687744,0.11032119393348694
1772884880985933800,6.208933837890625,-5.857259750366211,1.091703176498413,0.14254719018936157
1772884881002543600,6.225543701171875,-6.05043888092041,0.9370062351226807,0.11482882499694824
1772884881019146000,6.24214599609375,-5.282682418823242,0.44557738304138184,-0.3011438846588135
1772884881035738000,6.258738037109375,-4.800003528594971,-0.0898294448852539,-0.8813180923461914
1772884881052360400,6.2753603515625,-5.693953514099121,-0.4755685329437256,-1.408221960067749
1772884881068981200,6.291981201171875,-7.210543632507324,-0.7501981258392334,-1.750818133354187
1772884881085577500,6.308577392578125,-8.441239356994629,-0.9613173007965088,-1.9298052787780762
1772884881102184000,6.325183837890625,-9.047477722167969,-1.2433035373687744,-2.095104455947876
1772884881118787600,6.34178759765625,-9.12088394165039,-1.5772066116333008,-1.8159255981445312
1772884881135389400,6.358389404296875,-7.995250701904297,-1.8166570663452148,-0.6437289714813232
1772884881152001300,6.375001220703125,-5.124817848205566,-1.7317862510681152,1.0327774286270142
1772884881168602400,6.391602294921875,-1.6219191551208496,-2.0507211685180664,2.9517998695373535
1772884881185202400,6.408202392578125,3.4750537872314453,-2.7075634002685547,3.8887689113616943
1772884881201821700,6.42482177734375,8.45715045928955,-3.6300621032714844,3.491861581802368
1772884881218428000,6.441427978515625,10.51517391204834,-3.5954456329345703,1.5849074125289917
1772884881235044400,6.45804443359375,7.63041877746582,-1.5142052173614502,-0.5693486332893372
1772884881251642600,6.474642578125,1.46976900100708,2.497169017791748,-1.696166753768921
1772884881268249900,6.491249755859375,-2.3429794311523438,5.147127151489258,-1.6308516263961792
1772884881284837400,6.50783740234375,-0.663567066192627,5.886945724487305,-1.1122130155563354
1772884881301448400,6.524448486328125,2.988335609436035,4.963414669036865,-0.3590084910392761
1772884881318055700,6.5410556640625,6.5070719718933105,3.6184282302856445,0.6855825185775757
1772884881334650000,6.557650146484375,8.372007369995117,2.353292942047119,1.0450358390808105
1772884881351265300,6.574265380859375,7.2023115158081055,0.6905736923217773,1.0286073684692383
1772884881367880200,6.590880126953125,4.297480583190918,-0.8199977874755859,0.933329164981842
1772884881384483300,6.6074833984375,1.3193483352661133,-1.8316450119018555,0.7898098826408386
1772884881401089800,6.62408984375,-0.7548928260803223,-2.4884543418884277,0.6072298884391785
1772884881417711400,6.64071142578125,-1.867976188659668,-2.6913933753967285,0.5377253293991089
1772884881434334500,6.65733447265625,-2.7744531631469727,-2.5772480964660645,0.6628006100654602
1772884881450924000,6.673924072265625,-3.9214792251586914,-2.4698221683502197,0.8179435729980469
1772884881467531300,6.69053125,-4.888511657714844,-2.168484687805176,1.1340622901916504
1772884881484137700,6.7071376953125,-5.6186442375183105,-1.9248716831207275,1.1034334897994995
1772884881500744400,6.723744384765625,-5.6398491859436035,-1.8484326601028442,0.6301666498184204
1772884881517351700,6.7403515625,-5.0836968421936035,-2.147933006286621,0.31016597151756287
1772884881533941800,6.756941650390625,-5.554205894470215,-2.313188076019287,0.23273099958896637
1772884881550565600,6.773565673828125,-6.606734275817871,-2.07620906829834,0.21897339820861816
1772884881567171600,6.790171630859375,-7.530701637268066,-1.7603950500488281,0.39823800325393677
1772884881583779300,6.806779296875,-7.902237892150879,-1.0481398105621338,0.6343237161636353
1772884881600386000,6.823385986328125,-6.905766010284424,-0.07688474655151367,0.8837066888809204
1772884881616992300,6.8399921875,-2.871039390563965,0.609412670135498,0.6432098746299744
1772884881633586400,6.85658642578125,4.286005973815918,0.7167792320251465,0.7859033346176147
1772884881650207000,6.87320703125,10.736635208129883,1.433180809020996,0.47383204102516174
1772884881666836200,6.889836181640625,11.61185359954834,3.3552474975585938,-0.9517117738723755
1772884881683420700,6.906420654296875,6.803433418273926,5.429442405700684,-2.5915863513946533
1772884881700026600,6.923026611328125,1.805333137512207,7.030439376831055,-4.027493476867676
1772884881716633600,6.939633544921875,1.6816215515136719,6.89168119430542,-5.556567668914795
1772884881733225700,6.956225830078125,4.346456527709961,5.645014762878418,-6.079354763031006
1772884881749847300,6.972847412109375,8.377870559692383,4.818933486938477,-4.375785827636719
1772884881766433300,6.989433349609375,11.046951293945312,3.2256150245666504,-2.340355396270752
1772884881783048400,7.00604833984375,9.843009948730469,2.134430408477783,-1.5407261848449707
1772884881799654400,7.022654296875,5.823092460632324,1.8238539695739746,-0.4702420234680176
1772884881816260900,7.0392607421875,0.4867277145385742,1.5999627113342285,0.6128009557723999
1772884881832866300,7.0558662109375,-3.058720111846924,1.3046927452087402,1.5378245115280151
1772884881849474800,7.072474853515625,-2.690304756164551,0.6922321319580078,1.9812514781951904
1772884881866081500,7.08908154296875,-0.6583476066589355,-0.18101024627685547,1.5906364917755127
1772884881882688500,7.1056884765625,0.13380718231201172,-0.933347225189209,0.9553314447402954
1772884881899298300,7.12229833984375,-0.8671121597290039,-1.449584722518921,0.45098578929901123
1772884881915916000,7.138916015625,-2.600095748901367,-1.97751784324646,0.17494964599609375
1772884881932506600,7.155506591796875,-4.50736141204834,-2.4447479248046875,-0.010453581809997559
1772884881949129200,7.172129150390625,-6.195676326751709,-2.755708694458008,-0.4530961513519287
1772884881965736000,7.18873583984375,-6.563701629638672,-3.3665199279785156,-1.145079255104065
1772884881982343700,7.20534375,-6.116791248321533,-4.004146575927734,-1.4657105207443237
1772884881998950100,7.2219501953125,-5.350131034851074,-4.365799903869629,-1.181281328201294
1772884882015556900,7.238556884765625,-4.518490791320801,-4.519740581512451,-0.6322330236434937
1772884882032147000,7.25514697265625,-3.4346566200256348,-4.635613441467285,-0.2918696403503418
1772884882048770600,7.2717705078125,-2.1878151893615723,-4.607791423797607,-0.11142095923423767
1772884882065356800,7.288356689453125,-0.5844693183898926,-4.216488838195801,0.10126960277557373
1772884882081988600,7.304988525390625,1.0168967247009277,-3.6723763942718506,0.16899064183235168
1772884882098591200,7.32159130859375,2.231487274169922,-2.744370460510254,0.27627885341644287
1772884882115198000,7.338197998046875,3.479942798614502,-0.9793524742126465,0.9377046823501587
1772884882131788000,7.3547880859375,4.326937198638916,0.660132884979248,1.4129130840301514
1772884882148412000,7.371411865234375,5.234545707702637,1.0859861373901367,0.8119696974754333
1772884882165023500,7.3880234375,5.6628265380859375,1.3068938255310059,-0.18432697653770447
1772884882181620500,7.404620361328125,4.80529260635376,1.9953432083129883,-0.971015214920044
1772884882198232800,7.42123291015625,2.493016242980957,2.917834758758545,-1.0334701538085938
1772884882214822400,7.437822509765625,1.7759099006652832,3.6147074699401855,-0.7592220306396484
1772884882231428900,7.454428955078125,3.3046607971191406,3.7367587089538574,0.6434119939804077
1772884882248053200,7.47105322265625,3.7742629051208496,2.824580669403076,1.548295021057129
1772884882264644900,7.487644775390625,2.2830653190612793,1.5676026344299316,1.3183519840240479
1772884882281250300,7.504250244140625,0.1222071647644043,0.5130801200866699,1.0873355865478516
1772884882297859600,7.520859619140625,-1.7635302543640137,-0.21548795700073242,1.312256932258606
1772884882314466600,7.537466552734375,-3.785701274871826,-0.4387631416320801,1.3374876976013184
1772884882331063300,7.554063232421875,-5.708127975463867,-0.7123041152954102,0.6913397908210754
1772884882347680000,7.570679931640625,-6.539493560791016,-1.058861255645752,-0.1876351237297058
1772884882364267300,7.587267333984375,-5.9112443923950195,-1.3532352447509766,-0.5681343078613281
1772884882380896500,7.603896484375,-4.081840515136719,-1.859382152557373,-0.1626129150390625
1772884882397517800,7.620517822265625,-2.5971426963806152,-2.3375134468078613,1.0006694793701172
1772884882414120700,7.63712060546875,-2.4760923385620117,-2.4867331981658936,1.9606380462646484
1772884882430711000,7.6537109375,-3.104708194732666,-2.4814345836639404,2.1511428356170654
1772884882447316700,7.670316650390625,-3.6220455169677734,-2.4387898445129395,1.7438832521438599
1772884882463938000,7.68693798828125,-3.6803393363952637,-2.022632122039795,1.118843674659729
1772884882480552400,7.703552490234375,-2.034237861633301,-1.3498544692993164,1.021468162536621
1772884882497155300,7.7201552734375,1.0081901550292969,-0.48651790618896484,1.0754767656326294
1772884882513744400,7.736744384765625,3.649209499359131,0.15976619720458984,0.7399752736091614
1772884882530350800,7.753350830078125,3.831704616546631,0.9973855018615723,0.11664950847625732
1772884882546959000,7.769958984375,2.3383560180664062,1.7601327896118164,0.020482659339904785
1772884882563567000,7.786567138671875,0.3441762924194336,2.031284809112549,0.3713131546974182
1772884882580193000,7.803193115234375,-1.4268794059753418,2.132685661315918,0.31675881147384644
1772884882596796400,7.81979638671875,-1.180518627166748,1.700108528137207,0.001711130142211914
1772884882613403100,7.836403076171875,0.7772340774536133,1.336592674255371,-0.13361132144927979
1772884882629995300,7.852995361328125,2.2042436599731445,1.3551721572875977,0.08486670255661011
1772884882646617600,7.86961767578125,2.6352286338806152,1.3819551467895508,0.6712624430656433
1772884882663227400,7.886227294921875,2.3586459159851074,1.226898193359375,0.8639622330665588
1772884882679827200,7.9028271484375,2.0966672897338867,1.0270824432373047,0.48675721883773804
1772884882696437800,7.919437744140625,1.9649977684020996,1.0396771430969238,0.21646612882614136
1772884882713044500,7.93604443359375,1.5140814781188965,0.9914169311523438,0.3609853982925415
1772884882729634600,7.952634521484375,0.5641040802001953,0.9205260276794434,0.7369140386581421
1772884882746258400,7.969258544921875,-0.42375659942626953,0.7360725402832031,1.1510403156280518
1772884882762844200,7.98584423828125,-0.5755009651184082,0.39215517044067383,1.1880123615264893
1772884882779461600,8.002461669921875,-0.022465229034423828,-0.08292293548583984,1.1226553916931152
1772884882796061700,8.019061767578124,0.23907136917114258,-0.41616106033325195,0.8826079368591309
1772884882812674800,8.0356748046875,0.21055936813354492,-0.6151323318481445,0.6454215049743652
1772884882829260800,8.0522607421875,-0.008449077606201172,-0.6713137626647949,0.549518346786499
1772884882845887000,8.068886962890625,-0.2463221549987793,-0.5904245376586914,0.7232352495193481
1772884882862488000,8.085488037109375,-0.3622455596923828,-0.5137662887573242,0.9436367750167847
1772884882879102000,8.10210205078125,-0.3350095748901367,-0.5562505722045898,0.9776440262794495
1772884882895723000,8.118722900390624,-0.1778717041015625,-0.7281222343444824,0.8662233948707581
1772884882912326400,8.135326416015625,-0.10056352615356445,-0.9293727874755859,0.850680410861969
1772884882928916500,8.15191650390625,-0.5382847785949707,-1.000023365020752,0.7486689686775208
1772884882945539800,8.168539794921875,-1.3186964988708496,-1.1022357940673828,0.5467571020126343
1772884882962144000,8.18514404296875,-1.9484291076660156,-1.2233037948608398,0.4259377419948578
1772884882978757400,8.20175732421875,-2.260892391204834,-1.373896598815918,0.5102934837341309
1772884882995361000,8.218361083984375,-2.4019479751586914,-1.5943231582641602,0.6196705102920532
1772884883011967200,8.23496728515625,-2.568387031555176,-1.908409595489502,0.6923812031745911
1772884883028557600,8.2515576171875,-2.839402675628662,-2.2534408569335938,0.619037389755249
1772884883045181200,8.26818115234375,-3.4758100509643555,-2.7100777626037598,0.4593583941459656
1772884883061784300,8.284784423828125,-4.264824390411377,-2.7926626205444336,0.6552246809005737
1772884883078382300,8.30138232421875,-4.891162395477295,-2.551379680633545,0.9923227429389954
1772884883095001600,8.318001708984376,-5.162965774536133,-2.1814465522766113,1.1088522672653198
1772884883111608600,8.334608642578125,-4.789618492126465,-1.6414780616760254,1.1070257425308228
1772884883128199000,8.351198974609375,-3.523073673248291,-0.7384157180786133,0.6352401971817017
1772884883144826600,8.36782666015625,-0.5443711280822754,0.1015024185180664,-0.1312180757522583
1772884883161429800,8.3844296875,3.5353617668151855,1.345231056213379,-1.0462223291397095
1772884883178039300,8.401039306640625,6.619205474853516,2.9627366065979004,-1.4002947807312012
1772884883194643000,8.417642822265625,8.2266845703125,3.824535846710205,-1.739025592803955
1772884883211249400,8.43424951171875,9.822632789611816,3.865525722503662,-2.4791460037231445
1772884883227839200,8.450839111328126,12.528237342834473,3.54819393157959,-2.853637456893921
1772884883244446700,8.46744677734375,13.521636962890625,3.855003833770752,-2.5509238243103027
1772884883261056300,8.48405615234375,12.112503051757812,4.203084468841553,-2.3202877044677734
1772884883277663200,8.500663330078124,10.55937385559082,3.2996249198913574,-2.246443033218384
1772884883294270000,8.51727001953125,8.610349655151367,0.9715747833251953,-1.8204835653305054
1772884883310877200,8.533877197265625,4.588428497314453,-1.4153122901916504,-1.3539643287658691
1772884883327491800,8.550491943359376,0.8843927383422852,-2.6484570503234863,0.4042541980743408
1772884883344090600,8.567090576171875,-1.4595003128051758,-2.779900550842285,2.8434884548187256
1772884883360699100,8.58369921875,-2.786381244659424,-2.2731995582580566,4.307634353637695
1772884883377293300,8.600293212890625,-2.5931501388549805,-1.5846548080444336,4.102273941040039
1772884883393930000,8.616929931640625,-1.8869976997375488,-1.7915093898773193,2.6501569747924805
1772884883410531300,8.63353125,-2.3773365020751953,-2.267312526702881,0.8884198665618896
1772884883427122000,8.650121826171874,-3.9866647720336914,-2.7136611938476562,-0.37744271755218506
1772884883443745300,8.666745361328125,-4.900859355926514,-2.510064125061035,0.2684985399246216
1772884883460356000,8.683356201171875,-4.801743507385254,-2.050997734069824,0.8219536542892456
1772884883476939000,8.69993896484375,-4.215942859649658,-2.238654375076294,1.0069472789764404
1772884883493565700,8.716565673828125,-4.429466724395752,-2.503324270248413,0.8689597845077515
1772884883510173000,8.7331728515625,-5.329727649688721,-2.3452181816101074,1.0765377283096313
1772884883526763000,8.749762939453126,-5.8358612060546875,-2.1904635429382324,1.4947772026062012
1772884883543386600,8.76638671875,-6.085805416107178,-2.0377933979034424,1.6376744508743286
1772884883559996200,8.78299609375,-6.203364849090576,-2.0633761882781982,1.4216313362121582
1772884883576597200,8.79959716796875,-6.1043267250061035,-2.0191593170166016,1.1852905750274658
1772884883593207000,8.81620703125,-5.3193488121032715,-1.9753451347351074,1.2980098724365234
1772884883609813500,8.8328134765625,-4.245896339416504,-2.0222771167755127,1.4073948860168457
1772884883626403300,8.8494033203125,-3.4612765312194824,-1.8999972343444824,1.2182316780090332
1772884883643027500,8.86602734375,-3.0814671516418457,-1.7227425575256348,0.7872048616409302
1772884883659626000,8.8826259765625,-2.1071839332580566,-1.5820164680480957,0.8038666844367981
1772884883676233000,8.89923291015625,-1.022047996520996,-1.0311851501464844,0.9879249334335327
1772884883692848400,8.915848388671876,1.1113643646240234,-0.491696834564209,0.3693157434463501
1772884883709454800,8.932454833984375,4.1515703201293945,-0.8570871353149414,-1.1541049480438232
1772884883726050800,8.94905078125,7.067590713500977,-2.135453224182129,-2.0778000354766846
1772884883742651400,8.9656513671875,7.414083957672119,-2.972822427749634,-1.7159092426300049
1772884883759258000,8.982258056640624,5.859350204467773,-2.633406162261963,-0.23197710514068604
1772884883775872000,8.9988720703125,3.369992733001709,-1.1038594245910645,0.3819389343261719
1772884883792475400,9.015475341796876,-1.0625581741333008,1.8709969520568848,0.6139330863952637
1772884883809082000,9.03208203125,-5.902560234069824,4.051093101501465,1.2906932830810547
1772884883825675500,9.048675537109375,-8.613311767578125,6.098482608795166,1.5913989543914795
1772884883842296000,9.065296142578125,-8.795620918273926,6.287566184997559,1.7433052062988281
1772884883858899700,9.081899658203126,-5.005288124084473,3.5131406784057617,1.1369231939315796
1772884883875516000,9.098515869140625,1.6620736122131348,0.6286129951477051,-0.799880862236023
1772884883892115200,9.115115234375,7.947829246520996,-0.5045909881591797,-2.0470995903015137
1772884883908740900,9.131740966796874,8.288503646850586,-0.09541034698486328,-1.6633344888687134
1772884883925343700,9.14834375,4.648651123046875,1.1980361938476562,-0.3945814371109009
1772884883941927400,9.164927490234374,3.9476470947265625,1.2716498374938965,0.07950699329376221
1772884883958557000,9.181556884765625,3.968194007873535,-0.1658613681793213,-0.4091017246246338
1772884883975159300,9.1981591796875,3.375133514404297,-0.632709264755249,-0.24519264698028564
1772884883991771100,9.214771240234375,2.370242118835449,-0.5353231430053711,0.2642303705215454
1772884884008378400,9.23137841796875,1.7063426971435547,-0.24580717086791992,0.7763862013816833
1772884884024990700,9.24799072265625,1.1289567947387695,0.12494468688964844,1.177781343460083
1772884884041576400,9.264576416015625,0.5641403198242188,0.1935107707977295,1.082822561264038
1772884884058198800,9.28119873046875,-0.014288902282714844,0.009691953659057617,0.6691083908081055
1772884884074802400,9.297802490234375,-0.1903228759765625,0.04502606391906738,0.15383124351501465
1772884884091414300,9.314414306640625,0.1896047592163086,-0.13802552223205566,-0.21582651138305664
1772884884108019700,9.331019775390626,0.9951925277709961,-0.5959324836730957,-0.20788848400115967
1772884884124615700,9.34761572265625,1.1036529541015625,-0.8446478843688965,0.2264845371246338
1772884884141221600,9.3642216796875,0.5693111419677734,-0.6883323192596436,0.5343117713928223
1772884884157839600,9.380839599609375,-0.059708595275878906,-0.6210498809814453,0.2881162166595459
1772884884174446800,9.39744677734375,-0.2442026138305664,-0.7620639801025391,0.032738447189331055
1772884884191053800,9.4140537109375,0.1696634292602539,-0.8062608242034912,0.08435869216918945
1772884884207660000,9.430659912109375,0.45526599884033203,-0.7551021575927734,0.3432835340499878
1772884884224249300,9.447249267578124,0.7579193115234375,-0.5561614036560059,0.5007396936416626
1772884884240860000,9.46385986328125,1.0797653198242188,-0.5221753120422363,0.28919196128845215
1772884884257461200,9.480461181640624,0.7973499298095703,-0.3891153335571289,0.2546708583831787
1772884884274077200,9.4970771484375,0.10122394561767578,-0.15499162673950195,0.17169547080993652
1772884884290682600,9.5136826171875,-0.35503387451171875,-0.04197549819946289,0.42021918296813965
1772884884307287600,9.53028759765625,-0.32412242889404297,-0.04335498809814453,0.525711178779602
1772884884323894000,9.54689404296875,0.06723403930664062,-0.33743858337402344,0.3568599224090576
1772884884340495400,9.563495361328124,0.22780513763427734,-0.5771350860595703,0.36260950565338135
1772884884357107500,9.580107421875,0.017792701721191406,-0.6019372940063477,0.5238577127456665
1772884884373727700,9.596727783203125,-0.18705368041992188,-0.5292019844055176,0.7575761675834656
1772884884390339300,9.61333935546875,-0.23878765106201172,-0.5009989738464355,0.8075525760650635
1772884884406942000,9.62994189453125,-0.5666542053222656,-0.5914573669433594,0.5997584462165833
1772884884423548200,9.646548095703125,-1.4118099212646484,-0.3697037696838379,0.43700432777404785
1772884884440150500,9.663150634765625,-1.8729891777038574,-0.10030889511108398,0.5810595750808716
1772884884456762400,9.679762451171875,-1.6695232391357422,-0.1289224624633789,0.42155957221984863
1772884884473365800,9.69636572265625,-1.3101615905761719,-0.1517190933227539,0.3508557081222534
1772884884489997600,9.71299755859375,-0.4298715591430664,-0.2978811264038086,0.2895798683166504
