time,seconds_elapsed,z,y,x
1772884874957623300,0.180623291015625,8.447261810302734,5.441278457641602,0.3655036687850952
1772884874974232000,0.197232177734375,8.145766258239746,5.424529075622559,0.2715853750705719
1772884874990843000,0.2138427734375,8.014759063720703,5.528018474578857,0.32542386651039124
1772884875007449900,0.230449951171875,8.250452041625977,5.514857769012451,0.4342973232269287
1772884875024072700,0.24707275390625,8.410173416137695,5.392824172973633,0.3846462368965149
1772884875040677600,0.263677734375,8.477770805358887,5.3455657958984375,0.37447673082351685
1772884875057261300,0.28026123046875,8.185248374938965,5.362315654754639,0.2949153780937195
1772884875073875000,0.296875,7.722835063934326,5.487340450286865,0.19322042167186737
1772884875090486000,0.313486083984375,7.558328628540039,5.590231895446777,0.251844584941864
1772884875107112700,0.33011279296875,7.856235027313232,5.531607627868652,0.259621262550354
1772884875123710000,0.3467099609375,8.194221496582031,5.344967365264893,0.13639089465141296
1772884875140316200,0.363316162109375,8.46760082244873,5.276174068450928,0.0771685317158699
1772884875156918500,0.37991845703125,8.578269004821777,5.220541000366211,0.004187439568340778
1772884875173532000,0.396531982421875,8.639883995056152,5.231308460235596,-0.06281159073114395
1772884875190121700,0.413121826171875,8.697312355041504,5.24626350402832,-0.024526432156562805
1772884875206742500,0.429742431640625,8.470592498779297,5.36769962310791,0.058624155819416046
1772884875223352300,0.446352294921875,8.191828727722168,5.435894966125488,0.08015955984592438
1772884875239962000,0.462962158203125,8.067401885986328,5.472385406494141,0.12861421704292297
1772884875256559000,0.47955908203125,8.076375007629395,5.487340450286865,0.07597211748361588
1772884875273165800,0.496165771484375,8.081160545349121,5.468796253204346,0.018544375896453857
1772884875289781500,0.512781494140625,8.081160545349121,5.454439163208008,0.018544375896453857
1772884875306382300,0.52938232421875,8.211568832397461,5.426323413848877,0.10827522724866867
1772884875322993000,0.545992919921875,8.163712501525879,5.435296535491943,0.14715859293937683
1772884875339602200,0.562602294921875,7.94716215133667,5.519045352935791,0.16809579730033875
1772884875356171000,0.5791708984375,7.884350776672363,5.519045352935791,0.08195417374372482
1772884875372816600,0.595816650390625,8.00518798828125,5.467001438140869,0.1579262912273407
1772884875389414700,0.61241455078125,7.980661869049072,5.485546112060547,0.14835500717163086
1772884875406050600,0.629050537109375,7.932805061340332,5.54177713394165,0.24466611444950104
1772884875422617900,0.645617919921875,7.8179497718811035,5.540580749511719,0.29312077164649963
1772884875439227600,0.6622275390625,7.8041911125183105,5.525625705718994,0.2883351147174835
1772884875455821600,0.678821533203125,8.09671401977539,5.518447399139404,0.4061816334724426
1772884875472443000,0.69544287109375,8.188239097595215,5.4951171875,0.44386860728263855
1772884875489050600,0.712050537109375,8.35274600982666,5.415555953979492,0.47557350993156433
1772884875505658000,0.728658203125,8.5764741897583,5.447260856628418,0.3601198196411133
1772884875522261800,0.74526171875,8.46580696105957,5.423332691192627,0.24586252868175507
1772884875538886700,0.76188671875,8.142775535583496,5.511867046356201,0.09511470049619675
1772884875555475700,0.778475830078125,7.724031448364258,5.608776092529297,-0.007178467698395252
1772884875572096000,0.795095947265625,7.588238716125488,5.68893575668335,-0.04366901144385338
1772884875588702200,0.8117021484375,7.867600917816162,5.638686656951904,0.06400800496339798
1772884875605309400,0.828309326171875,8.271987915039062,5.518447399139404,0.07058826833963394
1772884875621918500,0.84491845703125,8.38863754272461,5.38624382019043,-0.01734796352684498
1772884875638521900,0.86152197265625,8.130212783813477,5.383851051330566,-0.03469592705368996
1772884875655097300,0.878097412109375,7.827520847320557,5.442475318908691,0.019740786403417587
1772884875671739000,0.89473876953125,7.57806921005249,5.477769374847412,-0.0023928226437419653
1772884875688338700,0.911338623046875,7.381857872009277,5.410171985626221,-0.1740778535604477
1772884875704964400,0.92796435546875,7.161718368530273,5.375475883483887,-0.30209386348724365
1772884875721550800,0.94455078125,7.008577346801758,5.416153907775879,-0.20518454909324646
1772884875738163200,0.9611630859375,7.073781967163086,5.376074314117432,0.10468599200248718
1772884875754737400,0.9777373046875,7.125825881958008,5.30548620223999,0.592223584651947
1772884875771376600,0.994376708984375,6.950551509857178,5.216353416442871,1.323829174041748
1772884875787988700,1.01098876953125,6.476772785186768,5.303691387176514,2.33180570602417
1772884875804596700,1.0275966796875,6.6939215660095215,5.678766250610352,2.9694929122924805
1772884875821197300,1.044197265625,8.255836486816406,5.0356950759887695,2.888735055923462
1772884875837805000,1.06080517578125,9.22134017944336,4.2209391593933105,2.561516523361206
1772884875854394600,1.07739453125,9.321240425109863,4.171886444091797,2.2737796306610107
1772884875871045600,1.094045654296875,9.33141040802002,4.077369689941406,2.1104695796966553
1772884875887640300,1.110640380859375,9.046066284179688,3.94097900390625,2.0297117233276367
1772884875904214500,1.127214599609375,8.854640007019043,3.9212381839752197,1.9016958475112915
1772884875920827100,1.1438271484375,8.628518104553223,3.854238986968994,1.587039589881897
1772884875937432300,1.160432373046875,8.306085586547852,3.895515203475952,1.3351950645446777
1772884875954022700,1.177022705078125,8.11944580078125,3.8464624881744385,1.2502498626708984
1772884875970651600,1.193651611328125,7.813164234161377,3.7872400283813477,1.0600204467773438
1772884875987250000,1.21025,7.87059211730957,3.755535125732422,0.9397810697555542
1772884876003864800,1.22686474609375,7.943572998046875,3.586242914199829,0.6993024349212646
1772884876020468000,1.243468017578125,8.078168869018555,3.446262836456299,0.38644084334373474
1772884876037089000,1.260089111328125,8.079963684082031,3.487539052963257,0.028115665540099144
1772884876053688600,1.2766884765625,7.886145114898682,3.5258240699768066,-0.20997019112110138
1772884876070304300,1.29330419921875,7.923233985900879,3.4953157901763916,-0.5497509837150574
1772884876086903800,1.30990380859375,7.723433494567871,3.5682966709136963,-0.9260223507881165
1772884876103520800,1.326520751953125,7.183253765106201,3.689134359359741,-1.2185449600219727
1772884876120120300,1.343120361328125,6.61914587020874,3.865604877471924,-1.3142578601837158
1772884876136727300,1.359727294921875,6.107679843902588,4.122235298156738,-1.1856436729431152
1772884876153304300,1.37630419921875,5.851049423217773,4.334000110626221,-1.0869396924972534
1772884876169941800,1.392941650390625,5.825924873352051,4.41475772857666,-1.0480563640594482
1772884876186544400,1.40954443359375,5.575276851654053,4.563711166381836,-0.9014959335327148
1772884876203160300,1.426160400390625,5.606383323669434,4.593621253967285,-0.42352959513664246
1772884876219763000,1.442762939453125,6.227919101715088,4.581058979034424,0.1902294009923935
1772884876236368400,1.459368408203125,7.325028419494629,4.482355117797852,0.8668000102043152
1772884876252957700,1.475957763671875,8.70628547668457,4.662415027618408,1.1617153882980347
1772884876269583000,1.4925830078125,10.657033920288086,5.003990173339844,1.1772687435150146
1772884876286188500,1.5091884765625,12.671192169189453,5.570491313934326,1.2897313833236694
1772884876302799000,1.525799072265625,14.302498817443848,6.350551128387451,0.49710890650749207
1772884876319403500,1.542403564453125,15.469598770141602,7.253243446350098,-0.641276478767395
1772884876336000500,1.55900048828125,15.91406536102295,7.7838521003723145,-0.6011967062950134
1772884876352620800,1.575620849609375,17.310874938964844,7.913662910461426,1.165902853012085
1772884876369227300,1.592227294921875,21.601205825805664,7.342974662780762,2.9312076568603516
1772884876385817600,1.608817626953125,25.496124267578125,5.3216376304626465,3.6257245540618896
1772884876402425300,1.62542529296875,26.590839385986328,3.5204403400421143,4.137190341949463
1772884876419033600,1.64203369140625,23.784059524536133,2.7122645378112793,5.041677474975586
1772884876435640000,1.65864013671875,17.861225128173828,3.1728827953338623,5.791228771209717
1772884876452250600,1.675250732421875,12.014362335205078,4.4482574462890625,5.967101573944092
1772884876468851200,1.691851318359375,8.383852005004883,5.024927616119385,5.585446357727051
1772884876485462800,1.708462890625,6.993622303009033,4.600201606750488,4.729413986206055
1772884876502067000,1.72506689453125,6.3499531745910645,3.7950167655944824,3.497708559036255
1772884876518691600,1.741691650390625,5.595017433166504,3.0275187492370605,2.1092731952667236
1772884876535294000,1.7582939453125,4.658825874328613,2.6177480220794678,1.2029916048049927
1772884876551884300,1.77488427734375,3.4791641235351562,2.5184457302093506,1.2711870670318604
1772884876568504000,1.791504150390625,1.8759729862213135,2.6470601558685303,1.5583257675170898
1772884876585110500,1.808110595703125,0.7112665176391602,2.6739792823791504,1.3980066776275635
1772884876601727200,1.824727294921875,0.9014959335327148,2.2187447547912598,0.6185446381568909
1772884876618327000,1.8413271484375,1.557727575302124,1.719243049621582,-0.048454657196998596
1772884876634934800,1.857934814453125,2.1003000736236572,1.5726827383041382,-0.1579262912273407
1772884876651510800,1.8745107421875,2.3150558471679688,1.5696916580200195,0.5006981492042542
1772884876668147700,1.891147705078125,1.6636099815368652,1.750349760055542,0.9314061999320984
1772884876684741000,1.9077412109375,1.2640085220336914,1.8472590446472168,0.8578268885612488
1772884876701365200,1.924365234375,1.4171491861343384,2.252842426300049,0.5826523303985596
1772884876717971500,1.940971435546875,2.190030813217163,2.7529425621032715,0.18005990982055664
1772884876734577000,1.957576904296875,4.482953071594238,3.1854450702667236,0.06041877344250679
1772884876751162400,1.974162353515625,9.1657075881958,4.3447675704956055,0.22432711720466614
1772884876767788500,1.99078857421875,15.039488792419434,5.6859450340271,0.8177471160888672
1772884876784390100,2.00739013671875,17.38983917236328,7.171289443969727,0.7968099117279053
1772884876801000000,2.024,12.608380317687988,7.972286701202393,0.03529413416981697
1772884876817610800,2.04061083984375,6.653841495513916,8.414361000061035,-0.43908295035362244
1772884876834216000,2.0572158203125,8.988637924194336,8.329415321350098,0.7663014531135559
1772884876850817300,2.0738173828125,15.089139938354492,6.974479675292969,1.8747764825820923
1772884876867427800,2.090427734375,17.525033950805664,6.775875568389893,1.3573286533355713
1772884876884040000,2.1070400390625,14.31326675415039,7.621738433837891,0.7405785918235779
1772884876900643800,2.123643798828125,9.218947410583496,8.783453941345215,-0.01136590726673603
1772884876917237200,2.1402373046875,4.692923545837402,9.1657075881958,0.4953143000602722
1772884876933842400,2.156842529296875,1.9441684484481812,8.338987350463867,1.389631748199463
1772884876950439700,2.173439697265625,2.1439690589904785,6.544369697570801,1.1216355562210083
1772884876967057700,2.1900576171875,4.234099864959717,4.780261516571045,-0.4097708761692047
1772884876983667700,2.206667724609375,7.5050883293151855,3.4091739654541016,-1.0887342691421509
1772884877000261000,2.22326123046875,8.949156761169434,2.748156785964966,-0.24526432156562805
1772884877016878800,2.23987890625,8.297710418701172,2.937189817428589,0.9505487680435181
1772884877033487000,2.256487060546875,6.581458568572998,3.094517946243286,1.6689938306808472
1772884877050083300,2.273083251953125,4.95493745803833,2.7762725353240967,1.5565310716629028
1772884877066702600,2.28970263671875,3.728017568588257,1.841277003288269,0.753140926361084
1772884877083304400,2.306304443359375,2.848057270050049,1.4757733345031738,-0.20099709928035736
1772884877099932400,2.322932373046875,2.404188632965088,1.2035897970199585,-0.8608179688453674
1772884877116532700,2.33953271484375,2.1367905139923096,1.0133603811264038,-1.3387842178344727
1772884877133140700,2.356140625,2.251646041870117,0.8410771489143372,-1.8095721006393433
1772884877149721900,2.372721923828125,3.073580741882324,0.96370929479599,-1.674377679824829
1772884877166352600,2.3893525390625,4.868795871734619,1.4500504732131958,-0.8057830333709717
1772884877182962000,2.4059619140625,8.649456024169922,1.8634105920791626,0.4336991012096405
1772884877199571700,2.42257177734375,14.559727668762207,2.6697919368743896,2.1134605407714844
1772884877216173600,2.439173583984375,18.882959365844727,3.8249270915985107,2.9587252140045166
1772884877232782600,2.455782470703125,19.694725036621094,4.978865623474121,1.561316728591919
1772884877249363700,2.47236376953125,16.01336669921875,7.327421188354492,-1.4327025413513184
1772884877265992400,2.488992431640625,11.709277153015137,10.347761154174805,-2.5435705184936523
1772884877282600200,2.50560009765625,11.645867347717285,11.604591369628906,-1.2717852592468262
1772884877299212000,2.5222119140625,13.694722175598145,10.543375015258789,0.1537388563156128
1772884877315818800,2.53881884765625,14.418551445007324,9.605388641357422,0.5730810165405273
1772884877332423000,2.5554228515625,14.164912223815918,8.15234661102295,0.01375873014330864
1772884877349028900,2.57202880859375,13.48475170135498,5.78345251083374,-0.32542386651039124
1772884877365637400,2.588637451171875,11.436495780944824,3.972085475921631,0.2566302418708801
1772884877382246000,2.605245849609375,8.506484031677246,2.973680257797241,0.8632107973098755
1772884877398831000,2.6218310546875,6.16271448135376,2.2947168350219727,1.1730812788009644
1772884877415447600,2.638447509765625,5.458626747131348,1.9124635457992554,0.7387840151786804
1772884877432050700,2.65505078125,6.027520179748535,2.3437697887420654,-0.32303106784820557
1772884877448647000,2.67164697265625,6.835696220397949,2.2031915187835693,-0.7974081635475159
1772884877465265200,2.68826513671875,6.530013084411621,2.2366909980773926,-0.6275177597999573
1772884877481868800,2.704868896484375,5.088337421417236,2.682354211807251,-0.27696922421455383
1772884877498497500,2.72149755859375,3.2201411724090576,3.115455150604248,-0.0526420995593071
1772884877515098600,2.7380986328125,1.7234305143356323,3.1962127685546875,0.33439695835113525
1772884877531707000,2.754706787109375,0.8207381963729858,3.349353551864624,0.3451646566390991
1772884877548297000,2.771296875,0.4097708761692047,3.607778310775757,0.37806597352027893
1772884877564919000,2.7879189453125,0.9260223507881165,4.016951084136963,0.7800601720809937
1772884877581517800,2.804517822265625,2.217548370361328,4.593023300170898,1.628315806388855
1772884877598139400,2.821139404296875,4.692325115203857,5.466403484344482,2.8737800121307373
1772884877614740200,2.837740234375,8.114660263061523,6.059823513031006,3.279961585998535
1772884877631345700,2.854345703125,13.104891777038574,6.509674072265625,2.255235433578491
1772884877647947300,2.870947265625,19.16112518310547,6.686144828796387,0.9888339638710022
1772884877664560600,2.887560546875,22.593629837036133,7.259225845336914,-0.7435696125030518
1772884877681162800,2.904162841796875,20.883956909179688,9.31047248840332,-1.6707884073257446
1772884877697777000,2.92077685546875,16.507484436035156,10.467402458190918,-0.8769695162773132
1772884877714380800,2.937380859375,14.753545761108398,10.278369903564453,-1.0977073907852173
1772884877730993200,2.9539931640625,18.692729949951172,8.507680892944336,-1.7599210739135742
1772884877747589400,2.97058935546875,23.121246337890625,5.932405471801758,-2.2199411392211914
1772884877764200400,2.987200439453125,22.115663528442383,4.607978343963623,-2.5250260829925537
1772884877780803600,3.003803466796875,16.3112735748291,4.442275047302246,-2.283350944519043
1772884877797417500,3.02041748046875,10.463214874267578,4.435096740722656,-0.9158528447151184
1772884877814044700,3.037044677734375,5.575276851654053,4.5475592613220215,0.5569294691085815
1772884877830628000,3.053628173828125,3.1579277515411377,4.140181541442871,1.495514154434204
1772884877847222300,3.07022216796875,4.092923164367676,3.063411235809326,1.5828521251678467
1772884877863843300,3.08684326171875,6.276373863220215,2.3718855381011963,1.2305090427398682
1772884877880446200,3.1034462890625,7.4500532150268555,1.7635103464126587,1.1282159090042114
1772884877897042000,3.1200419921875,6.22193717956543,1.6504493951797485,1.0390832424163818
1772884877913652700,3.13665283203125,4.140181541442871,1.6516457796096802,1.0504491329193115
1772884877930257400,3.15325732421875,2.4981069564819336,1.5702898502349854,0.6574280261993408
1772884877946844400,3.169844482421875,1.1240284442901611,1.576271891593933,-0.12382857501506805
1772884877963469300,3.18646923828125,0.7417750358581543,1.2681959867477417,-0.9942178130149841
1772884877978007300,3.20100732421875,1.0480563640594482,1.1497513055801392,-1.3076776266098022
1772884877994602800,3.217602783203125,0.9984052777290344,1.2604193687438965,-1.1048858165740967
1772884878011217700,3.2342177734375,1.0019944906234741,1.6259230375289917,-0.8434699773788452
1772884878027824400,3.250824462890625,1.3836497068405151,2.1822543144226074,-0.4504488706588745
1772884878044418600,3.26741845703125,3.204587697982788,2.7834508419036865,0.50907301902771
1772884878061038300,3.284038330078125,6.675376892089844,3.6155550479888916,1.4063814878463745
1772884878077645000,3.30064501953125,10.558928489685059,4.184448719024658,1.098305583000183
1772884878094268200,3.31726806640625,14.484951972961426,4.633700847625732,0.2883351147174835
1772884878110872600,3.33387255859375,15.384653091430664,5.73978328704834,-0.12263216078281403
1772884878127479300,3.350479248046875,12.92064380645752,8.003393173217773,-0.3032902777194977
1772884878144066000,3.367066162109375,9.984052658081055,9.32303524017334,0.20398813486099243
1772884878160675600,3.383675537109375,7.886743545532227,9.415159225463867,-0.12681959569454193
1772884878177300000,3.400300048828125,7.519444942474365,9.486943244934082,-0.24526432156562805
1772884878193908500,3.416908447265625,6.75374174118042,9.644271850585938,-0.4456632137298584
1772884878210514400,3.433514404296875,7.966903209686279,10.01994514465332,0.11066804826259613
1772884878227121000,3.450120849609375,10.897512435913086,9.957731246948242,-0.11425728350877762
1772884878243727400,3.466727294921875,13.03370475769043,9.45164966583252,-0.3655036687850952
1772884878260345900,3.483345947265625,12.77348518371582,8.133204460144043,0.4570291340351105
1772884878276926000,3.499926025390625,10.237691879272461,6.802196502685547,0.9732806086540222
1772884878293534200,3.5165341796875,7.445267677307129,5.160720348358154,0.7507480978965759
1772884878310141400,3.533141357421875,5.379663467407227,3.8871402740478516,0.22133609652519226
1772884878326748200,3.549748046875,5.410171985626221,3.507878065109253,-0.4103690981864929
1772884878343355000,3.56635498046875,7.684549808502197,2.8007988929748535,-0.719641387462616
1772884878359948500,3.582948486328125,7.103094100952148,3.242872953414917,-0.31824541091918945
1772884878376569000,3.599569091796875,5.0703911781311035,3.7884364128112793,-0.19262222945690155
1772884878393175800,3.61617578125,3.627519130706787,4.028316974639893,-0.4169493317604065
1772884878409782800,3.63278271484375,3.3930225372314453,3.8769710063934326,-0.768694281578064
1772884878426389000,3.649388916015625,4.131806373596191,3.442075490951538,-0.7010970115661621
1772884878442996000,3.665995849609375,4.539782524108887,3.2416765689849854,-0.45284169912338257
1772884878459596500,3.682596435546875,4.308277130126953,3.266202926635742,-0.16510476171970367
1772884878476210200,3.699210205078125,4.048655986785889,3.311666488647461,-0.048454657196998596
1772884878492827400,3.715827392578125,3.556332588195801,3.448655605316162,-0.2470589429140091
1772884878509422300,3.73242236328125,4.402195453643799,3.7154552936553955,-0.20338992774486542
1772884878526031000,3.749031005859375,7.682157039642334,4.372883319854736,-0.09631111472845078
1772884878542637300,3.76563720703125,12.215359687805176,5.3940205574035645,-0.25363919138908386
1772884878559224800,3.782224853515625,14.528620719909668,6.450451850891113,-0.3332005441188812
1772884878575851000,3.79885107421875,11.215758323669434,8.346165657043457,-1.098903775215149
1772884878592457700,3.815457763671875,6.558128833770752,9.771689414978027,-1.5912270545959473
1772884878609065000,3.83206494140625,3.3583266735076904,10.507482528686523,-2.8767709732055664
1772884878625672000,3.848671875,5.271388053894043,10.343574523925781,-3.8602211475372314
1772884878642292000,3.8652919921875,9.871589660644531,9.33320426940918,-2.6769702434539795
1772884878658899200,3.881899169921875,15.019149780273438,8.404789924621582,-0.6867401003837585
1772884878675506000,3.898505859375,20.100906372070312,8.078767776489258,0.10169496387243271
1772884878692124400,3.91512451171875,19.300506591796875,8.167900085449219,0.26500511169433594
1772884878708703000,3.931702880859375,13.670793533325195,8.163114547729492,0.9846464991569519
1772884878725325600,3.94832568359375,8.518448829650879,7.256833076477051,1.9334007501602173
1772884878741930500,3.964930419921875,5.4418768882751465,6.052644729614258,1.9692929983139038
1772884878758531800,3.98153173828125,5.315057277679443,4.751547336578369,1.1102696657180786
1772884878775146800,3.998146728515625,8.575278282165527,3.326023578643799,-0.3858426511287689
1772884878791740700,4.01474072265625,9.781859397888184,2.3922245502471924,-1.633101463317871
1772884878808361000,4.03136083984375,8.042277336120605,2.5160529613494873,-1.7072789669036865
1772884878824959200,4.047959228515625,4.805386066436768,2.885744094848633,-1.0941181182861328
1772884878841579000,4.0645791015625,1.9950158596038818,2.9617161750793457,-0.7106683254241943
1772884878858181600,4.081181640625,0.4534398913383484,2.768495798110962,-0.6903293132781982
1772884878874772700,4.097772705078125,1.195214867591858,2.3844478130340576,-0.9068797826766968
1772884878891364400,4.1143642578125,2.764906644821167,1.7234305143356323,-0.9541380405426025
1772884878907987000,4.130987060546875,3.510270833969116,1.5954145193099976,-0.6927221417427063
1772884878924595200,4.14759521484375,3.476771354675293,1.4620146751403809,-0.22791635990142822
1772884878941202200,4.1642021484375,4.240679740905762,1.4009976387023926,0.1585244983434677
1772884878957809000,4.180808837890625,6.495316982269287,1.6067804098129272,0.11006984114646912
1772884878974413800,4.197413818359375,10.229316711425781,2.435295343399048,0.13220344483852386
1772884878991012600,4.2140126953125,13.304692268371582,2.943770170211792,0.28893333673477173
1772884879007628000,4.2306279296875,13.210773468017578,3.8883368968963623,0.4127618968486786
1772884879024236000,4.247236083984375,10.213165283203125,5.282754421234131,0.04007977992296219
1772884879040843300,4.26384326171875,8.006982803344727,6.754340171813965,0.3367897868156433
1772884879057450000,4.280449951171875,8.923434257507324,6.636493682861328,0.43908295035362244
1772884879074056700,4.297056640625,11.92343521118164,5.67338228225708,0.31764721870422363
1772884879090662000,4.313661865234375,15.879369735717773,5.666802406311035,1.1718848943710327
1772884879107284500,4.330284423828125,16.300506591796875,5.967101573944092,1.1766705513000488
1772884879123889700,4.3468896484375,13.338191986083984,5.880959987640381,-0.47796630859375
1772884879140499500,4.36349951171875,10.804790496826172,5.362315654754639,-0.6305087804794312
1772884879157105000,4.38010498046875,8.928817749023438,5.462215900421143,0.6352944374084473
1772884879173711400,4.39671142578125,7.188039302825928,5.850451469421387,1.6576279401779175
1772884879190318000,4.413318115234375,6.423532485961914,5.724828243255615,1.8610178232192993
1772884879206909000,4.429908935546875,6.878767013549805,5.8821563720703125,0.8554341197013855
1772884879223532000,4.446531982421875,7.491329669952393,5.84147834777832,-0.4061816334724426
1772884879240121000,4.46312109375,8.030312538146973,5.995815277099609,-2.0985054969787598
1772884879256748000,4.479748046875,8.183453559875488,6.356533527374268,-2.0554347038269043
1772884879273353200,4.496353271484375,7.4123663902282715,6.811169624328613,-0.5994020700454712
1772884879289943800,4.51294384765625,6.700501441955566,6.887141704559326,1.1060823202133179
1772884879306567000,4.52956689453125,4.924428939819336,6.793821811676025,2.3605196475982666
1772884879323149000,4.546149169921875,3.2416765689849854,6.327819347381592,2.3802602291107178
1772884879339766300,4.562766357421875,3.757927894592285,5.474778175354004,2.2779672145843506
1772884879356374800,4.579374755859375,7.1024956703186035,4.569094657897949,2.624328136444092
1772884879372980200,4.595980224609375,11.456236839294434,3.31465744972229,3.118446111679077
1772884879389587000,4.6125869140625,15.972090721130371,1.4979069232940674,2.9210381507873535
1772884879406182100,4.62918212890625,20.528024673461914,-0.20877377688884735,2.0620148181915283
1772884879422800600,4.645800537109375,20.888744354248047,-0.4055834412574768,1.8179470300674438
1772884879439420700,4.662420654296875,16.031911849975586,2.245065927505493,1.7688941955566406
1772884879456030700,4.67903076171875,9.32183837890625,5.976074695587158,1.7455641031265259
1772884879472635100,4.69563525390625,4.887340068817139,7.911269664764404,3.2548370361328125
1772884879524514600,4.7475146484375,29.428129196166992,-1.9567307233810425,3.569493293762207
1772884879541136000,4.764135986328125,25.439294815063477,-1.2969099283218384,-2.2959132194519043
1772884879557748500,4.78074853515625,15.060425758361816,1.5134602785110474,-4.469194412231445
1772884879574344400,4.797344482421875,8.213363647460938,3.441477060317993,-4.683950424194336
1772884879590956800,4.813956787109375,5.111667156219482,3.769293785095215,-3.817748546600342
1772884879607563500,4.8305634765625,5.063212871551514,3.7812578678131104,-2.4161527156829834
1772884879624142000,4.84714208984375,5.627918720245361,3.6394832134246826,-1.339382529258728
1772884879640777500,4.863777587890625,4.378267288208008,4.040280818939209,-1.042074203491211
1772884879657382400,4.88038232421875,3.2763724327087402,4.179663181304932,-0.8632107973098755
1772884879673993700,4.89699365234375,3.2207393646240234,3.833899974822998,-0.778863787651062
1772884879690598000,4.913597900390625,3.1004998683929443,3.3780672550201416,-0.7387840151786804
1772884879707197200,4.930197265625,2.868396043777466,2.80977201461792,-0.6221339106559753
1772884879723812000,4.94681201171875,3.273381471633911,2.26959228515625,-0.19322042167186737
1772884879740402000,4.96340185546875,2.3563320636749268,1.7838492393493652,0.06699903309345245
1772884879757025000,4.98002490234375,1.2496516704559326,1.750349760055542,-0.23330020904541016
1772884879773638000,4.996637939453125,-0.3756731450557709,1.6049858331680298,-0.363709032535553
1772884879790217000,5.013217041015625,0.31046873331069946,1.9896320104599,0.31405797600746155
1772884879806846200,5.02984619140625,2.926422119140625,2.166102647781372,2.103889226913452
1772884879823435500,5.046435546875,6.894320011138916,2.651247501373291,3.6442689895629883
1772884879840023300,5.063023193359375,12.717253684997559,2.2331018447875977,4.55055046081543
1772884879856653000,5.079653076171875,19.91725730895996,0.7908278703689575,3.724428415298462
1772884879873262000,5.096261962890625,23.30250358581543,-0.6933203339576721,1.2789636850357056
1772884879889864200,5.1128642578125,19.6540470123291,1.5080764293670654,-0.0568295381963253
1772884879906473200,5.12947314453125,10.104889869689941,5.493920803070068,0.8159525394439697
1772884879923083800,5.146083740234375,0.8865407705307007,9.431310653686523,1.6139588356018066
1772884879939684000,5.16268408203125,2.35872483253479,7.545766353607178,1.7880367040634155
1772884879956302000,5.179302001953125,14.79960823059082,3.108276605606079,2.053640127182007
1772884879972916500,5.19591650390625,26.99462890625,-1.353141188621521,1.9752750396728516
1772884879989509400,5.21250927734375,25.485355377197266,-1.3334003686904907,-1.2538390159606934
1772884880006128400,5.22912841796875,15.991233825683594,1.384247899055481,-1.4572290182113647
1772884880022734800,5.24573486328125,9.315258979797363,2.368894338607788,-0.24526432156562805
1772884880039325000,5.262324951171875,6.689733982086182,2.9306094646453857,0.20877377688884735
1772884880055949000,5.278948974609375,4.762315273284912,4.107280254364014,0.07537391036748886
1772884880072552200,5.29555224609375,3.6191442012786865,4.419543266296387,-0.4420739710330963
1772884880089166000,5.312166015625,3.9936211109161377,4.5786662101745605,-1.2418749332427979
1772884880105769500,5.32876953125,4.188037872314453,4.920839786529541,-1.933998942375183
1772884880122376200,5.345376220703125,3.6837503910064697,5.007579803466797,-2.0404794216156006
1772884880138968600,5.361968505859375,2.4915266036987305,4.986044406890869,-2.163111686706543
1772884880155588400,5.37858837890625,1.399801254272461,4.628317356109619,-2.599203586578369
1772884880172195600,5.395195556640625,0.9176474809646606,4.1623148918151855,-3.040081262588501
1772884880188804900,5.411804931640625,2.042274236679077,3.3948171138763428,-3.0664021968841553
1772884880205410800,5.428410888671875,3.3074791431427,2.8803603649139404,-2.8049862384796143
1772884880222017300,5.445017333984375,5.011168956756592,2.2055842876434326,-1.7336000204086304
1772884880238607000,5.461607177734375,7.610372543334961,2.204986095428467,0.6287141442298889
1772884880255232000,5.47823193359375,13.01396369934082,1.5397813320159912,2.5256242752075195
1772884880271833600,5.49483349609375,20.452651977539062,0.07597211748361588,2.3198416233062744
1772884880288448800,5.51144873046875,24.651456832885742,-1.3770694732666016,0.6305087804794312
1772884880305034500,5.528034423828125,21.777677536010742,-0.5539384484291077,-0.26560330390930176
1772884880321644800,5.544644775390625,14.143974304199219,2.179263114929199,0.06520441919565201
1772884880338262500,5.561262451171875,6.26141881942749,4.60139799118042,2.485544443130493
1772884880354856000,5.57785595703125,8.888737678527832,3.851248025894165,4.062414646148682
1772884880371467800,5.5944677734375,20.08296012878418,0.8261220455169678,4.297509670257568
1772884880388072200,5.611072265625,26.093730926513672,-0.2949153780937195,1.892722725868225
1772884880404679000,5.627678955078125,22.116262435913086,2.1475582122802734,-0.7214360237121582
1772884880421302500,5.644302490234375,15.919448852539062,4.271786689758301,-1.2203395366668701
1772884880437893000,5.66089306640625,11.470593452453613,4.706682205200195,-1.220937728881836
1772884880454496800,5.677496826171875,8.964710235595703,3.865604877471924,-1.1653046607971191
1772884880471116300,5.6941162109375,7.304090976715088,3.5234313011169434,-0.7040880918502808
1772884880487704000,5.7107041015625,5.873781204223633,4.029513359069824,-0.7160521745681763
1772884880504333600,5.72733349609375,5.515456199645996,4.59421968460083,-1.1880364418029785
1772884880520940800,5.74394091796875,5.721837043762207,4.5828537940979,-1.8161523342132568
1772884880537530600,5.760530517578125,5.131408214569092,4.743771076202393,-2.38983154296875
1772884880554154800,5.77715478515625,3.459423303604126,4.774877548217773,-2.5812573432922363
1772884880570756600,5.793756591796875,1.8352949619293213,4.683950424194336,-2.4149563312530518
1772884880587376000,5.810376220703125,0.802193820476532,4.527220249176025,-2.118844509124756
1772884880603975200,5.82697509765625,0.2105683982372284,4.25084924697876,-1.8496519327163696
1772884880620581600,5.84358154296875,0.09870393574237823,3.8799619674682617,-1.7365909814834595
1772884880637172500,5.86017236328125,0.6251249313354492,3.410968780517578,-1.628315806388855
1772884880653795800,5.8767958984375,1.4081761837005615,2.988037347793579,-0.9756734371185303
1772884880670399700,5.893399658203125,2.6811578273773193,2.8492536544799805,0.16390834748744965
1772884880687011300,5.91001123046875,4.183850288391113,3.0693931579589844,1.5487544536590576
1772884880703616000,5.926615966796875,7.627122402191162,3.1621150970458984,2.9790642261505127
1772884880720222700,5.94322265625,14.221741676330566,2.1960129737854004,4.025325775146484
1772884880736841200,5.95984130859375,20.72722816467285,0.4043870270252228,3.535395383834839
1772884880753436700,5.976436767578125,23.47478675842285,-0.9804590940475464,2.6488547325134277
1772884880770037800,5.993037841796875,19.276578903198242,0.5084748268127441,2.286342144012451
1772884880786659000,6.0096591796875,12.596416473388672,3.824328899383545,2.3294129371643066
1772884880803240200,6.026240234375,8.307880401611328,6.189035892486572,2.414358139038086
1772884880819840500,6.042840576171875,8.709874153137207,5.151148796081543,1.643869161605835
1772884880836449800,6.05944970703125,15.569499015808105,3.152543783187866,0.6047859191894531
1772884880853064200,6.076064208984375,20.874984741210938,2.0644078254699707,0.2225325107574463
1772884880869671000,6.0926708984375,24.046072006225586,2.761317253112793,0.5688936114311218
1772884880886277400,6.10927734375,23.10748863220215,3.067000389099121,0.5760720372200012
1772884880902884000,6.125884033203125,17.253448486328125,3.7399818897247314,0.01136590726673603
1772884880919508200,6.14250830078125,12.43131160736084,3.7872400283813477,-0.39122650027275085
1772884880936109600,6.159109619140625,10.361519813537598,3.503690481185913,-0.0849452018737793
1772884880952718600,6.175718505859375,7.844270706176758,3.9702908992767334,0.4301098585128784
1772884880969320000,6.19231982421875,4.471587181091309,4.47278356552124,0.6245267391204834
1772884880985933800,6.208933837890625,2.802593469619751,4.487140655517578,0.7728816866874695
1772884881002543600,6.225543701171875,3.253640651702881,4.128815650939941,0.7058826684951782
1772884881019146000,6.24214599609375,4.2281174659729,3.5120654106140137,0.14057832956314087
1772884881035738000,6.258738037109375,4.505684852600098,3.0370900630950928,-0.5144568681716919
1772884881052360400,6.2753603515625,3.084348440170288,2.8636105060577393,-1.0869396924972534
1772884881068981200,6.291981201171875,1.4225330352783203,2.8151557445526123,-1.4506487846374512
1772884881085577500,6.308577392578125,0.21415762603282928,2.8426733016967773,-1.7545372247695923
1772884881102184000,6.325183837890625,-0.24526432156562805,2.744567632675171,-2.0159530639648438
1772884881118787600,6.34178759765625,-0.27816563844680786,2.6117658615112305,-1.6247265338897705
1772884881135389400,6.358389404296875,1.3160524368286133,2.5495524406433105,-0.15134602785110474
1772884881152001300,6.375001220703125,4.500899314880371,2.789433002471924,1.7216359376907349
1772884881168602400,6.391602294921875,8.245068550109863,2.5561327934265137,3.597608804702759
1772884881185202400,6.408202392578125,13.789836883544922,1.7790635824203491,4.101297855377197
1772884881201821700,6.42482177734375,18.404993057250977,1.0713863372802734,3.122633457183838
1772884881218428000,6.441427978515625,19.114465713500977,1.8478572368621826,0.3936193287372589
1772884881235044400,6.45804443359375,14.32882022857666,5.103292465209961,-2.0135602951049805
1772884881251642600,6.474642578125,7.059424877166748,9.889535903930664,-2.9515466690063477
1772884881268249900,6.491249755859375,4.364508628845215,12.07777214050293,-2.5800609588623047
1772884881284837400,6.50783740234375,7.738388538360596,12.285947799682617,-1.9184455871582031
1772884881301448400,6.524448486328125,11.833703994750977,10.661221504211426,-0.8823533654212952
1772884881318055700,6.5410556640625,15.425331115722656,9.126225471496582,0.24825534224510193
1772884881334650000,6.557650146484375,16.807186126708984,7.493124008178711,0.4289134442806244
1772884881351265300,6.574265380859375,14.828920364379883,5.520241737365723,0.30149564146995544
1772884881367880200,6.590880126953125,11.706884384155273,3.812962770462036,0.19142581522464752
1772884881384483300,6.6074833984375,8.937192916870117,2.7122645378112793,0.03170489892363548
1772884881401089800,6.62408984375,7.362715244293213,1.8969101905822754,-0.10408778488636017
1772884881417711400,6.64071142578125,6.626922130584717,1.5828521251678467,-0.11186445504426956
1772884881434334500,6.65733447265625,5.829514026641846,1.581655740737915,0.12681959569454193
1772884881450924000,6.673924072265625,4.6785664558410645,1.5104693174362183,0.30508488416671753
1772884881467531300,6.69053125,3.8775691986083984,1.771286964416504,0.7136593461036682
1772884881484137700,6.7071376953125,3.1890344619750977,1.932802438735962,0.5174478888511658
1772884881500744400,6.723744384765625,3.52103853225708,1.9070796966552734,-0.0011964113218709826
1772884881517351700,6.7403515625,4.0905303955078125,1.5804593563079834,-0.21236300468444824
1772884881533941800,6.756941650390625,3.1561331748962402,1.6516457796096802,-0.2111666053533554
1772884881550565600,6.773565673828125,1.9304096698760986,2.2025933265686035,-0.19561325013637543
1772884881567171600,6.790171630859375,0.97926265001297,2.7361927032470703,0.048454657196998596
1772884881583779300,6.806779296875,0.7657032608985901,3.7322051525115967,0.267397940158844
1772884881600386000,6.823385986328125,2.2480568885803223,4.8329033851623535,0.4486542344093323
1772884881616992300,6.8399921875,7.405188083648682,5.340780258178711,0.21296121180057526
1772884881633586400,6.85658642578125,15.399608612060547,5.318048477172852,0.6604190468788147
1772884881650207000,6.87320703125,21.125633239746094,6.51326322555542,0.13938191533088684
1772884881666836200,6.889836181640625,19.728822708129883,9.154939651489258,-1.6941183805465698
1772884881683420700,6.906420654296875,13.12104320526123,11.533405303955078,-3.480360507965088
1772884881700026600,6.923026611328125,8.510671615600586,13.156935691833496,-5.030311584472656
1772884881716633600,6.939633544921875,10.048060417175293,12.31944751739502,-6.551548480987549
1772884881733225700,6.956225830078125,13.411770820617676,10.834102630615234,-6.500102519989014
1772884881749847300,6.972847412109375,18.012571334838867,9.847063064575195,-3.7980077266693115
1772884881766433300,6.989433349609375,19.954944610595703,7.849654674530029,-1.5708880424499512
1772884881783048400,7.00604833984375,17.602800369262695,6.957729816436768,-0.8991031050682068
1772884881799654400,7.022654296875,12.739387512207031,6.806384086608887,0.633499801158905
1772884881816260900,7.0392607421875,7.147959232330322,6.620342254638672,1.950150489807129
1772884881832866300,7.0558662109375,4.420739650726318,6.241677761077881,3.091526746749878
1772884881849474800,7.072474853515625,6.128616809844971,5.38624382019043,3.4582269191741943
1772884881866081500,7.08908154296875,8.407182693481445,4.362713813781738,2.8737800121307373
1772884881882688500,7.1056884765625,8.673981666564941,3.6777684688568115,2.163709878921509
1772884881899298300,7.12229833984375,7.103094100952148,3.3200414180755615,1.6534404754638672
1772884881915916000,7.138916015625,5.132604598999023,2.9282166957855225,1.3794622421264648
1772884881932506600,7.155506591796875,3.10109806060791,2.7074787616729736,1.0977073907852173
1772884881949129200,7.172129150390625,1.414756417274475,2.6087749004364014,0.42293140292167664
1772884881965736000,7.18873583984375,1.4578272104263306,2.046461582183838,-0.45224347710609436
1772884881982343700,7.20534375,1.9764715433120728,1.5858432054519653,-0.7740781307220459
1772884881998950100,7.2219501953125,2.761317253112793,1.43389892578125,-0.49292147159576416
1772884882015556900,7.238556884765625,3.5336008071899414,1.4727823734283447,-0.07118647545576096
1772884882032147000,7.25514697265625,4.615755081176758,1.454836130142212,-0.005982056725770235
1772884882048770600,7.2717705078125,5.826523303985596,1.6929219961166382,0.017946170642971992
1772884882065356800,7.288356689453125,7.428517818450928,2.307279348373413,0.12323036789894104
1772884882081988600,7.304988525390625,8.864211082458496,3.0317063331604004,0.03469592705368996
1772884882098591200,7.32159130859375,9.811769485473633,4.342374801635742,0.21595224738121033
1772884882115198000,7.338197998046875,10.88136100769043,6.510272026062012,1.0199406147003174
1772884882131788000,7.3547880859375,11.47956657409668,8.136195182800293,1.3441680669784546
1772884882148412000,7.371411865234375,12.340982437133789,8.25523853302002,0.2063809484243393
1772884882165023500,7.3880234375,12.466008186340332,8.558527946472168,-0.9876375198364258
1772884882181620500,7.404620361328125,11.104491233825684,9.445667266845703,-1.8197416067123413
1772884882198232800,7.42123291015625,8.432307243347168,10.357931137084961,-1.6785650253295898
1772884882214822400,7.437822509765625,8.669196128845215,10.85025405883789,-1.303490161895752
1772884882231428900,7.454428955078125,10.84427261352539,10.567901611328125,0.4378865361213684
1772884882248053200,7.47105322265625,10.965707778930664,9.114859580993652,0.9619147181510925
1772884882264644900,7.487644775390625,8.982656478881836,7.743772506713867,0.3696911036968231
1772884882281250300,7.504250244140625,6.825526714324951,6.640082836151123,0.2590230405330658
1772884882297859600,7.520859619140625,5.093721389770508,6.005984783172607,0.6323033571243286
1772884882314466600,7.537466552734375,3.0137600898742676,5.878567218780518,0.5623133182525635
1772884882331063300,7.554063232421875,1.2352946996688843,5.489135265350342,-0.36311084032058716
1772884882347680000,7.570679931640625,0.8877372145652771,5.044070243835449,-1.3980066776275635
1772884882364267300,7.587267333984375,2.0853450298309326,4.633102893829346,-1.7042878866195679
1772884882380896500,7.603896484375,4.265206336975098,3.9391841888427734,-1.0947163105010986
1772884882397517800,7.620517822265625,5.516054630279541,3.525225877761841,0.28175488114356995
1772884882414120700,7.63712060546875,5.123631477355957,3.5712878704071045,1.1264212131500244
1772884882430711000,7.6537109375,4.225724697113037,3.7387852668762207,1.098903775215149
1772884882447316700,7.670316650390625,3.686741590499878,3.9433717727661133,0.5437689423561096
1772884882463938000,7.68693798828125,3.7328033447265625,4.59003210067749,-0.10169496387243271
1772884882480552400,7.703552490234375,5.967101573944092,5.3940205574035645,-0.04187439754605293
1772884882497155300,7.7201552734375,9.279366493225098,6.334399700164795,-0.03888336941599846
1772884882513744400,7.736744384765625,11.483156204223633,7.0462646484375,-0.5437689423561096
1772884882530350800,7.753350830078125,10.639087677001953,8.185846328735352,-1.171286702156067
1772884882546959000,7.769958984375,8.51306438446045,9.094520568847656,-0.9613165259361267
1772884882563567000,7.786567138671875,6.179464340209961,9.438488960266113,-0.45284169912338257
1772884882580193000,7.803193115234375,4.500899314880371,9.584450721740723,-0.6771687865257263
1772884882596796400,7.81979638671875,5.5106706619262695,8.952147483825684,-1.0271191596984863
1772884882613403100,7.836403076171875,7.903493404388428,8.620741844177246,-1.1623135805130005
1772884882629995300,7.852995361328125,9.116056442260742,8.668598175048828,-0.7812566161155701
1772884882646617600,7.86961767578125,9.302696228027344,8.631509780883789,-0.09870393574237823
1772884882663227400,7.886227294921875,8.925827026367188,8.335397720336914,-0.06999006122350693
1772884882679827200,7.9028271484375,8.783453941345215,8.079963684082031,-0.6113662123680115
1772884882696437800,7.919437744140625,8.763712882995605,8.066802978515625,-0.7980063557624817
1772884882713044500,7.93604443359375,8.212167739868164,7.9489569664001465,-0.5234299302101135
1772884882729634600,7.952634521484375,7.146164894104004,7.828119277954102,-0.04007977992296219
1772884882746258400,7.969258544921875,6.258427619934082,7.585247993469238,0.3936193287372589
1772884882762844200,7.98584423828125,6.472585201263428,7.124031066894531,0.3080759048461914
1772884882779461600,8.002461669921875,7.219145774841309,6.573083877563477,0.2183450609445572
1772884882796061700,8.019061767578124,7.371089935302734,6.266204357147217,-0.09092725813388824
1772884882812674800,8.0356748046875,7.296912670135498,6.09033203125,-0.3164508044719696
1772884882829260800,8.0522607421875,7.004988193511963,6.08195686340332,-0.3248256742954254
1772884882845887000,8.068886962890625,6.774679183959961,6.211767673492432,-0.06400800496339798
1772884882862488000,8.085488037109375,6.697510719299316,6.299703598022461,0.16151553392410278
1772884882879102000,8.10210205078125,6.751947402954102,6.209972858428955,0.12263216078281403
1772884882895723000,8.118722900390624,6.940980434417725,6.011966705322266,-0.023330021649599075
1772884882912326400,8.135326416015625,6.929614543914795,5.849255084991455,-0.019740786403417587
1772884882928916500,8.15191650390625,6.26859712600708,5.85284423828125,-0.1740778535604477
1772884882945539800,8.168539794921875,5.392824172973633,5.768496990203857,-0.40378883481025696
1772884882962144000,8.18514404296875,4.805386066436768,5.662614822387695,-0.5018945336341858
1772884882978757400,8.20175732421875,4.599005222320557,5.50648307800293,-0.38225340843200684
1772884882995361000,8.218361083984375,4.494318962097168,5.251049518585205,-0.2925225794315338
1772884883011967200,8.23496728515625,4.334000110626221,4.88554573059082,-0.27038896083831787
1772884883028557600,8.2515576171875,4.023531436920166,4.538586139678955,-0.4001995921134949
1772884883045181200,8.26818115234375,3.2859437465667725,4.029513359069824,-0.5485545992851257
1772884883061784300,8.284784423828125,2.493321180343628,4.066003799438477,-0.20877377688884735
1772884883078382300,8.30138232421875,1.9926230907440186,4.3208394050598145,0.10707881301641464
1772884883095001600,8.318001708984376,1.95852530002594,4.621737003326416,0.14297115802764893
1772884883111608600,8.334608642578125,2.6865415573120117,5.07517671585083,0.07477571070194244
1772884883128199000,8.351198974609375,4.4273200035095215,5.870192050933838,-0.6658028960227966
1772884883144826600,8.36782666015625,8.306085586547852,6.427121639251709,-1.5966109037399292
1772884883161429800,8.3844296875,12.667603492736816,7.51585578918457,-2.531606435775757
1772884883178039300,8.401039306640625,15.493526458740234,9.046066284179688,-2.7517459392547607
1772884883194643000,8.417642822265625,16.781463623046875,9.369695663452148,-3.16749906539917
1772884883211249400,8.43424951171875,18.75494384765625,8.995218276977539,-3.951746702194214
1772884883227839200,8.450839111328126,21.730419158935547,8.50169849395752,-4.053441524505615
1772884883244446700,8.46744677734375,22.041484832763672,8.946166038513184,-3.52103853225708
1772884883261056300,8.48405615234375,19.93101692199707,9.22851848602295,-3.468994617462158
1772884883277663200,8.500663330078124,18.55693817138672,7.763513088226318,-3.4337005615234375
1772884883294270000,8.51727001953125,16.1970157623291,5.160121917724609,-3.032902717590332
1772884883310877200,8.533877197265625,11.470593452453613,3.0412776470184326,-2.3856441974639893
1772884883327491800,8.550491943359376,8.014161109924316,2.475973129272461,0.21714866161346436
1772884883344090600,8.567090576171875,6.003592014312744,2.6805596351623535,2.9174489974975586
1772884883360699100,8.58369921875,5.048855781555176,3.3948171138763428,3.8464624881744385
1772884883377293300,8.600293212890625,5.843272686004639,3.813561201095581,2.850450038909912
1772884883393930000,8.616929931640625,6.622735023498535,3.1686954498291016,0.8709874153137207
1772884883410531300,8.63353125,5.669195175170898,2.599203586578369,-1.0169496536254883
1772884883427122000,8.650121826171874,3.867997884750366,2.1750757694244385,-1.8233308792114258
1772884883443745300,8.666745361328125,3.273979663848877,2.6362924575805664,-0.5491527915000916
1772884883460356000,8.683356201171875,3.7292141914367676,3.0340991020202637,0.010767702013254166
1772884883476939000,8.69993896484375,4.408775806427002,2.599801778793335,0.15732808411121368
1772884883493565700,8.716565673828125,3.8464624881744385,2.4131617546081543,0.04426721855998039
1772884883510173000,8.7331728515625,2.8151557445526123,2.709871530532837,0.4492524564266205
1772884883526763000,8.749762939453126,2.4502503871917725,2.898306369781494,0.8973084688186646
1772884883543386600,8.76638671875,2.2372891902923584,3.039483070373535,0.8662018179893494
1772884883559996200,8.78299609375,2.169093608856201,2.9659037590026855,0.45942193269729614
1772884883576597200,8.79959716796875,2.342573404312134,3.046661376953125,0.17168502509593964
1772884883593207000,8.81620703125,3.3822548389434814,3.046661376953125,0.3762713670730591
1772884883609813500,8.8328134765625,4.454239368438721,3.0245277881622314,0.3655036687850952
1772884883626403300,8.8494033203125,5.090131759643555,3.2063822746276855,0.03349951654672623
1772884883643027500,8.86602734375,5.368896007537842,3.476771354675293,-0.4827519655227661
1772884883659626000,8.8826259765625,6.495316982269287,3.6879379749298096,-0.24406790733337402
1772884883676233000,8.89923291015625,7.543971538543701,4.473381996154785,-0.07657032459974289
1772884883692848400,8.915848388671876,10.078569412231445,4.992026329040527,-1.0528420209884644
1772884883709454800,8.932454833984375,13.269996643066406,4.408775806427002,-2.7732813358306885
1772884883726050800,8.94905078125,15.793227195739746,3.129213809967041,-3.2991042137145996
1772884883742651400,8.9656513671875,15.002998352050781,3.0029923915863037,-2.3437697887420654
1772884883759258000,8.982258056640624,12.565309524536133,4.192225456237793,-0.6185446381568909
1772884883775872000,8.9988720703125,9.258428573608398,6.57547664642334,-0.3529413342475891
1772884883792475400,9.015475341796876,3.7094733715057373,10.319645881652832,-0.31764721870422363
1772884883809082000,9.03208203125,-1.3854442834854126,12.503096580505371,0.41575294733047485
1772884883825675500,9.048675537109375,-3.336193084716797,14.505290985107422,0.5659025311470032
1772884883842296000,9.065296142578125,-2.3563320636749268,13.591232299804688,0.6825526356697083
1772884883858899700,9.081899658203126,3.4133615493774414,9.446864128112793,-0.494716078042984
1772884883875516000,9.098515869140625,11.554940223693848,5.886941909790039,-3.197409152984619
1772884883892115200,9.115115234375,17.634504318237305,4.621737003326416,-4.278964996337891
1772884883908740900,9.131740966796874,16.186248779296875,5.091328144073486,-3.377469062805176
1772884883925343700,9.14834375,11.939586639404297,6.2530436515808105,-1.8340985774993896
1772884883941927400,9.164927490234374,12.623335838317871,5.386841773986816,-1.5140584707260132
1772884883958557000,9.181556884765625,12.747164726257324,3.482753276824951,-1.9878374338150024
1772884883975159300,9.1981591796875,12.052647590637207,3.1932218074798584,-1.4506487846374512
1772884883991771100,9.214771240234375,11.011770248413086,3.2919256687164307,-0.8410771489143372
1772884884008378400,9.23137841796875,10.506884574890137,3.6029927730560303,-0.30987054109573364
1772884884024990700,9.24799072265625,9.93679428100586,3.9864425659179688,0.03529413416981697
1772884884041576400,9.264576416015625,9.351749420166016,3.9768712520599365,-0.20039889216423035
1772884884058198800,9.28119873046875,8.763114929199219,3.830909013748169,-0.633499801158905
1772884884074802400,9.297802490234375,8.718249320983887,4.016352653503418,-1.1766705513000488
1772884884091414300,9.314414306640625,9.256634712219238,3.7710886001586914,-1.4733805656433105
1772884884108019700,9.331019775390626,10.093523979187012,3.339184045791626,-1.3663017749786377
1772884884124615700,9.34761572265625,9.862616539001465,3.3176486492156982,-0.8153542876243591
1772884884141221600,9.3642216796875,9.09093189239502,3.7148571014404297,-0.6454638838768005
1772884884157839600,9.380839599609375,8.444869041442871,3.8494534492492676,-1.0043872594833374
1772884884174446800,9.39744677734375,8.35872745513916,3.759124279022217,-1.2149556875228882
1772884884191053800,9.4140537109375,8.909674644470215,3.8021950721740723,-1.0408778190612793
1772884884207660000,9.430659912109375,9.080761909484863,3.9732820987701416,-0.7154539823532104
1772884884224249300,9.447249267578124,9.401400566101074,4.211368083953857,-0.6915257573127747
1772884884240860000,9.46385986328125,9.66221809387207,4.2454657554626465,-1.0133603811264038
1772884884257461200,9.480461181640624,9.122037887573242,4.478765964508057,-1.0037890672683716
1772884884274077200,9.4970771484375,8.310871124267578,4.8059844970703125,-1.1066805124282837
1772884884290682600,9.5136826171875,7.923233985900879,4.937589645385742,-0.7304090857505798
1772884884307287600,9.53028759765625,8.105687141418457,4.929812908172607,-0.7316055297851562
1772884884323894000,9.54689404296875,8.545966148376465,4.5822553634643555,-0.966102123260498
1772884884340495400,9.563495361328124,8.563314437866211,4.457230567932129,-0.8668000102043152
1772884884357107500,9.580107421875,8.203792572021484,4.557130813598633,-0.6771687865257263
1772884884373727700,9.596727783203125,8.00100040435791,4.730011940002441,-0.45523449778556824
1772884884390339300,9.61333935546875,7.917850017547607,4.797011375427246,-0.511465847492218
1772884884406942000,9.62994189453125,7.390232563018799,4.750949382781982,-0.8482556343078613
1772884884423548200,9.646548095703125,6.303293228149414,5.233103275299072,-1.0253244638442993
1772884884440150500,9.663150634765625,6.057430744171143,5.420341491699219,-0.7782655358314514
1772884884456762400,9.679762451171875,6.463612079620361,5.340780258178711,-1.1018948554992676
1772884884473365800,9.69636572265625,6.9104719161987305,5.254638671875,-1.0809576511383057
1772884884489997600,9.71299755859375,7.966304779052734,5.056034088134766,-1.155733346939087
