time,seconds_elapsed,z,y,x
1772884874920257300,0.14325732421875,0.11209376901388168,-0.0858265683054924,-0.03573561832308769
1772884874936869000,0.159869140625,0.07727445662021637,-0.039095375686883926,-0.023976460099220276
1772884874953476600,0.1764765625,0.04963280260562897,-0.007635815534740686,0.009468411095440388
1772884874970086000,0.1930859375,0.03940080851316452,-0.01466076634824276,0.04596760869026184
1772884874986693400,0.209693359375,0.0455094613134861,-0.010231993161141872,0.014049900695681572
1772884875003297800,0.2262978515625,0.02825251780450344,0.0074830991216003895,-0.038637228310108185
1772884875019920600,0.242920654296875,-0.0029016099870204926,-0.014966198243200779,-0.017562376335263252
1772884875036523800,0.259523681640625,-0.027488935738801956,-0.06551529467105865,0.03420845419168472
1772884875053126700,0.276126708984375,-0.041233405470848083,-0.023976460099220276,0.07773260027170181
1772884875069741600,0.292741455078125,-0.039248090237379074,0.03573561832308769,0.06169738993048668
1772884875086347800,0.30934765625,-0.0455094613134861,0.03222314268350601,-0.014508049935102463
1772884875102958300,0.325958251953125,-0.08292495459318161,-0.03573561832308769,-0.08704829961061478
1772884875119558000,0.342557861328125,-0.10537425428628922,-0.0780380368232727,-0.09972374886274338
1772884875136167000,0.3591669921875,-0.09453139454126358,-0.04993823543190956,-0.07880161702632904
1772884875152772900,0.37577294921875,-0.07177666574716568,0.05742133408784866,-0.053297992795705795
1772884875169380000,0.392380126953125,-0.04001167416572571,0.10980302840471268,-0.02015855349600315
1772884875185987600,0.408987548828125,-0.010995574295520782,0.08109235763549805,0.04352414980530739
1772884875202605000,0.42560498046875,-0.00015271631127689034,0.00366519158706069,0.12690725922584534
1772884875219199700,0.44219970703125,-0.012828170321881771,-0.05742133408784866,0.15500704944133759
1772884875235808800,0.458808837890625,-0.01970040425658226,-0.04886921867728233,0.11957687139511108
1772884875252412700,0.47541259765625,-0.018478672951459885,0.029626963660120964,0.05726861581206322
1772884875269046300,0.49204638671875,-0.004886921960860491,0.06734789162874222,0.024129176512360573
1772884875285630000,0.5086298828125,0.0039706239476799965,0.026114489883184433,0.02519819140434265
1772884875302235400,0.5252353515625,0.006108652334660292,-0.023518312722444534,0.044135015457868576
1772884875318840800,0.5418408203125,0.004428773187100887,-0.028557950630784035,0.08475755155086517
1772884875335449000,0.558448974609375,-0.004123340360820293,-0.03527746722102165,0.1062905490398407
1772884875352059400,0.575059326171875,-0.01466076634824276,-0.046273041516542435,0.08200865983963013
1772884875368671700,0.591671630859375,-0.006108652334660292,-0.025503624230623245,0.04535674303770065
1772884875385269000,0.60826904296875,0.0025961773935705423,-0.0012217304902151227,0.0328340083360672
1772884875401882400,0.62488232421875,-0.003512475173920393,0.001527163083665073,0.020311269909143448
1772884875418460400,0.64146044921875,-0.021838432177901268,-0.02825251780450344,0.010842857882380486
1772884875435076900,0.658076904296875,-0.03878994286060333,-0.045204028487205505,-0.03222314268350601
1772884875451681000,0.674680908203125,-0.05345070734620094,-0.08155050873756409,-0.0659734457731247
1772884875468292000,0.6912919921875,-0.07849618047475815,-0.10873401165008545,-0.05360342562198639
1772884875484897500,0.7078974609375,-0.09682214260101318,-0.10873401165008545,-0.04886921867728233
1772884875501505500,0.724505615234375,-0.09529497474431992,-0.10842858254909515,-0.016493361443281174
1772884875518108700,0.741108642578125,-0.10033461451530457,-0.09834930300712585,0.054367005825042725
1772884875534721000,0.757720947265625,-0.07971791177988052,-0.050243668258190155,0.10506882518529892
1772884875551334100,0.774334228515625,-0.049785517156124115,0.020311269909143448,0.09926560521125793
1772884875567946500,0.790946533203125,-0.03390302136540413,0.04642575979232788,0.02229658141732216
1772884875584552200,0.80755224609375,-0.033139441162347794,0.026572637259960175,-0.053297992795705795
1772884875601157400,0.824157470703125,-0.05207626149058342,-0.001832595793530345,-0.057879481464624405
1772884875617764400,0.840764404296875,-0.05910121276974678,-0.019394971430301666,0.003054326167330146
1772884875634372400,0.857372314453125,-0.04535674303770065,-0.020311269909143448,0.07269296050071716
1772884875650958800,0.873958740234375,-0.03145955875515938,-0.017562376335263252,0.08903361111879349
1772884875667593000,0.890593017578125,-0.043218716979026794,-0.027641652151942253,0.0705549344420433
1772884875684193000,0.907193115234375,-0.05345070734620094,-0.048105638474226,0.031001411378383636
1772884875700800000,0.923800048828125,-0.03298672288656235,-0.06169738993048668,-0.019394971430301666
1772884875717404000,0.94040380859375,-0.005039638374000788,-0.09529497474431992,-0.09514226019382477
1772884875733999400,0.956999267578125,0.005039638374000788,-0.13729196786880493,-0.18020524084568024
1772884875750584300,0.973584228515625,-0.016798794269561768,-0.19715675711631775,-0.24877487123012543
1772884875767233800,0.99023388671875,-0.06582073122262955,-0.2808452844619751,-0.30573806166648865
1772884875783837200,1.006837158203125,-0.1540907621383667,-0.3423899710178375,-0.38148534297943115
1772884875800437800,1.023437744140625,-0.346818745136261,-0.41691553592681885,-0.5572618246078491
1772884875817046300,1.04004638671875,-0.6556110978126526,-0.6304129362106323,-0.727082371711731
1772884875833655600,1.056655517578125,-0.8098546266555786,-0.7417431473731995,-0.6293439269065857
1772884875850254000,1.073254150390625,-0.8045095205307007,-0.8037459254264832,-0.41111230850219727
1772884875866877700,1.089877685546875,-0.7651087045669556,-0.8871290683746338,-0.2532036304473877
1772884875883469300,1.10646923828125,-0.6956228017807007,-0.8782715201377869,-0.12751811742782593
1772884875900081400,1.123081298828125,-0.6154467463493347,-0.8156577944755554,-0.06414084881544113
1772884875916671200,1.139671142578125,-0.5325217843055725,-0.7061602473258972,-0.047800205647945404
1772884875933282600,1.156282470703125,-0.437226802110672,-0.6640105247497559,-0.08155050873756409
1772884875949886500,1.172886474609375,-0.3576616048812866,-0.7086036801338196,-0.12889257073402405
1772884875966499300,1.189499267578125,-0.2961169183254242,-0.7680103182792664,-0.17577648162841797
1772884875983103000,1.20610302734375,-0.2356412708759308,-0.801913321018219,-0.2588541507720947
1772884875999717400,1.22271728515625,-0.18860463798046112,-0.7417431473731995,-0.33399057388305664
1772884876016316000,1.23931591796875,-0.11270463466644287,-0.6000223755836487,-0.44165557622909546
1772884876032940500,1.2559404296875,-0.03588833287358284,-0.4983133375644684,-0.5193881988525391
1772884876049542400,1.27254248046875,0.024129176512360573,-0.4761694669723511,-0.575893223285675
1772884876066153500,1.289153564453125,0.07513642311096191,-0.5074763298034668,-0.6214026808738708
1772884876082764000,1.305763916015625,0.14324790239334106,-0.5123631954193115,-0.6154467463493347
1772884876099363600,1.322363525390625,0.2321287989616394,-0.44165557622909546,-0.6178901791572571
1772884876115973600,1.3389736328125,0.355981707572937,-0.3338378667831421,-0.6763805150985718
1772884876132579000,1.3555791015625,0.45875978469848633,-0.21639901399612427,-0.7725918292999268
1772884876149161700,1.37216162109375,0.5036584138870239,-0.14569136500358582,-0.9010262489318848
1772884876165802000,1.388802001953125,0.5186246037483215,-0.10018189996480942,-0.9918924570083618
1772884876182399500,1.4053994140625,0.5433646440505981,-0.04092797264456749,-1.012050986289978
1772884876198993200,1.4219931640625,0.5768095254898071,0.010231993161141872,-1.0517572164535522
1772884876215613000,1.438613037109375,0.5917757153511047,0.014202617108821869,-1.0958921909332275
1772884876232220200,1.45522021484375,0.5739079117774963,0.022907447069883347,-1.0823005437850952
1772884876248820500,1.471820556640625,0.5099197626113892,0.03894266113638878,-0.9625709056854248
1772884876265438200,1.488438232421875,0.4294382631778717,0.03680463135242462,-0.7415903806686401
1772884876282044700,1.505044677734375,0.33017265796661377,0.14034628868103027,-0.3885102868080139
1772884876298647000,1.52164697265625,0.21700987219810486,0.45875978469848633,0.0025961773935705423
1772884876315253800,1.538253662109375,0.24526239931583405,0.9004153609275818,0.36361753940582275
1772884876331859700,1.554859619140625,0.43799036741256714,1.2892310619354248,0.626747727394104
1772884876348469500,1.571469482421875,0.6368269920349121,1.2646437883377075,0.49037206172943115
1772884876365075200,1.5880751953125,0.6375905871391296,0.9256135821342468,0.11239920556545258
1772884876381683700,1.60468359375,0.5119050741195679,0.31673362851142883,0.2600758671760559
1772884876398287600,1.62128759765625,0.5061018466949463,-0.5334380865097046,1.0349584817886353
1772884876414882000,1.637882080078125,0.6284276247024536,-0.9954048991203308,1.9709566831588745
1772884876431479000,1.65447900390625,0.7628179788589478,-0.7634288668632507,2.462550401687622
1772884876448095500,1.671095458984375,0.755793035030365,-0.15241087973117828,2.233476161956787
1772884876464703500,1.687703369140625,0.5815436840057373,0.3562871515750885,1.4934128522872925
1772884876481309400,1.704309326171875,0.2900082767009735,0.45952337980270386,0.7628179788589478
1772884876497915000,1.720914794921875,0.014355333521962166,0.15134187042713165,0.40072759985923767
1772884876514526700,1.737526611328125,-0.16691893339157104,-0.4444044530391693,0.3672827184200287
1772884876531141600,1.7541416015625,-0.1996002197265625,-0.9007207751274109,0.4433354437351227
1772884876547755800,1.770755859375,-0.1635591685771942,-0.8300131559371948,0.46441030502319336
1772884876564362000,1.787362060546875,-0.2119702398777008,-0.2785545587539673,0.3816380500793457
1772884876580966000,1.8039658203125,-0.3793473243713379,0.24953845143318176,0.17959438264369965
1772884876597569500,1.820569580078125,-0.5636758804321289,0.5334380865097046,-0.05742133408784866
1772884876614177000,1.837177001953125,-0.6041457056999207,0.6768386960029602,-0.09315694868564606
1772884876630783200,1.853783203125,-0.5393940210342407,0.7195992469787598,0.08491026610136032
1772884876647383800,1.8703837890625,-0.46899178624153137,0.7260133624076843,0.4280638098716736
1772884876663978200,1.886978271484375,-0.5096143484115601,0.7619016766548157,0.7687739133834839
1772884876680601000,1.90360107421875,-0.574976921081543,0.8182539939880371,0.9014843702316284
1772884876697213000,1.920212890625,-0.6073527932167053,0.8381071090698242,0.8669704794883728
1772884876713820200,1.936820068359375,-0.5904012322425842,0.7611380815505981,0.6875288486480713
1772884876730423800,1.953423828125,-0.5102251768112183,0.43829581141471863,0.375529408454895
1772884876747032800,1.97003271484375,-0.39064833521842957,0.07376197725534439,0.18096883594989777
1772884876763645700,1.986645751953125,-0.3597996234893799,-0.3049744665622711,0.5791002511978149
1772884876780245200,2.003245361328125,-0.4558582007884979,-0.4815145432949066,1.6925548315048218
1772884876796849000,2.019848876953125,-0.5578727126121521,-0.2373211532831192,2.6812403202056885
1772884876813462800,2.036462890625,-0.4625777006149292,-0.09025534242391586,2.2311851978302
1772884876830065700,2.053065673828125,-0.22846360504627228,-0.1788308024406433,0.42699480056762695
1772884876846669800,2.069669921875,-0.1742493063211441,-0.2840523421764374,-0.7101308703422546
1772884876863283200,2.086283203125,-0.20143280923366547,-0.2727513313293457,-0.5755877494812012
1772884876879887600,2.1028876953125,-0.1365283876657486,-0.08536841720342636,-0.020616702735424042
1772884876896477700,2.119477783203125,-0.010231993161141872,0.10323622822761536,0.1609629988670349
1772884876913085200,2.136085205078125,0.16859880089759827,0.19547687470912933,-0.1621847152709961
1772884876929696800,2.15269677734375,0.18127426505088806,0.31031954288482666,-1.038318157196045
1772884876946296000,2.169296142578125,0.0633772686123848,0.7218900322914124,-2.2542455196380615
1772884876962912300,2.185912353515625,-0.023518312722444534,1.1047497987747192,-3.2198708057403564
1772884876979516400,2.202516357421875,0.0731511116027832,0.9750936627388,-3.553097724914551
1772884876996117500,2.219117431640625,0.2525927722454071,0.44516804814338684,-3.04546856880188
1772884877012732000,2.23573193359375,0.3171917796134949,-0.2765692472457886,-2.0567831993103027
1772884877029336300,2.25233642578125,0.19165897369384766,-0.8820894360542297,-1.0769554376602173
1772884877045941500,2.26894140625,-0.03420845419168472,-1.2043207883834839,-0.38209620118141174
1772884877062552600,2.285552490234375,-0.1992947906255722,-1.1033753156661987,0.05207626149058342
1772884877079156200,2.30215625,-0.23380866646766663,-0.778853178024292,0.3271183371543884
1772884877095780900,2.31878076171875,-0.19379699230194092,-0.5047274231910706,0.5299255847930908
1772884877112384000,2.335384033203125,-0.11453723162412643,-0.26633724570274353,0.6472117304801941
1772884877128993300,2.3519931640625,0.033597588539123535,0.15241087973117828,0.5789475440979004
1772884877145590800,2.3685908203125,0.3078760802745819,0.6803511381149292,0.3764457106590271
1772884877162211000,2.385211181640625,0.5946773290634155,0.9947940707206726,0.0884227454662323
1772884877178811000,2.401810791015625,0.7896960377693176,1.0680978298187256,-0.16737708449363708
1772884877195417000,2.4184169921875,0.7980954647064209,0.8533787727355957,0.05497787147760391
1772884877212043800,2.435043701171875,0.5613851547241211,0.6522513628005981,1.00502610206604
1772884877228630500,2.451630615234375,0.23273965716362,0.5971207618713379,2.1372647285461426
1772884877245197300,2.468197265625,0.2373211532831192,1.214400053024292,2.8047878742218018
1772884877261851400,2.484851318359375,0.6290385127067566,1.9605720043182373,2.1846067905426025
1772884877278451700,2.50145166015625,0.9450085163116455,2.0537290573120117,0.6805039048194885
1772884877295066000,2.518066162109375,0.8923214077949524,1.5338826179504395,-0.5823072791099548
1772884877311673300,2.53467333984375,0.6091853380203247,0.6261368989944458,-1.2420417070388794
1772884877328270800,2.551270751953125,0.27382034063339233,-0.3727805018424988,-1.623068928718567
1772884877344879600,2.567879638671875,0.13439035415649414,-0.9958630800247192,-1.880243182182312
1772884877361485600,2.584485595703125,0.2028072625398636,-1.0668761730194092,-1.945605754852295
1772884877378091800,2.601091796875,0.27977627515792847,-0.7044803500175476,-2.0415115356445312
1772884877394685400,2.617685546875,0.2874121069908142,-0.14385876059532166,-2.3047945499420166
1772884877411293700,2.634293701171875,0.2295326143503189,0.3219259977340698,-2.5529584884643555
1772884877427899100,2.650899169921875,0.1745547503232956,0.5612324476242065,-2.540894031524658
1772884877444504600,2.667504638671875,0.20326541364192963,0.4199698567390442,-2.1032090187072754
1772884877461117200,2.6841171875,0.2889392673969269,0.04077525436878204,-1.2640329599380493
1772884877477719800,2.7007197265625,0.3701843321323395,-0.1696678251028061,-0.3764457106590271
1772884877494331100,2.7173310546875,0.40072759985923767,-0.1693623960018158,0.25366178154945374
1772884877510947000,2.733947021484375,0.3813326358795166,0.04688390716910362,0.5638286471366882
1772884877527553500,2.750553466796875,0.33399057388305664,0.47189339995384216,0.6021603941917419
1772884877544158200,2.767158203125,0.31444287300109863,0.8315402865409851,0.5316054821014404
1772884877560743200,2.7837431640625,0.26801711320877075,0.7924449443817139,0.4132503271102905
1772884877577373700,2.800373779296875,0.1892155110836029,0.43417248129844666,0.34208452701568604
1772884877593991000,2.816990966796875,-0.01710422709584236,0.09957103431224823,0.23136521875858307
1772884877610588400,2.83358837890625,-0.3933972120285034,-0.03420845419168472,0.1186605766415596
1772884877627194400,2.8501943359375,-0.7898487448692322,-0.3202461004257202,0.10919216275215149
1772884877643802000,2.866802001953125,-1.0386236906051636,-0.8037459254264832,0.5345070958137512
1772884877660410000,2.88341015625,-1.0346530675888062,-1.0419833660125732,1.5399912595748901
1772884877677044200,2.900044189453125,-0.8292495608329773,-0.845132052898407,2.616183042526245
1772884877693623800,2.916623779296875,-0.7547240257263184,-0.39645153284072876,2.7311785221099854
1772884877710229200,2.933229248046875,-0.8920159935951233,-0.021991148591041565,1.7008016109466553
1772884877726837000,2.9498369140625,-1.013578176498413,-0.18631389737129211,0.30802878737449646
1772884877743441700,2.966441650390625,-0.9512699246406555,-0.6340781450271606,-0.20433442294597626
1772884877760054300,2.98305419921875,-0.694248378276825,-0.8881980776786804,0.35353827476501465
1772884877776656100,2.99965625,-0.30115658044815063,-0.887739896774292,0.955545961856842
1772884877793265700,3.016265625,0.06276640295982361,-0.9676105380058289,1.1302534341812134
1772884877809876500,3.03287646484375,0.24327708780765533,-1.168279767036438,0.9381362795829773
1772884877826471200,3.04947119140625,0.24892759323120117,-1.3655892610549927,0.3568980097770691
1772884877843082800,3.066082763671875,0.18799377977848053,-1.207069754600525,-0.3341432809829712
1772884877859695600,3.082695556640625,0.1693623960018158,-0.7571674585342407,-0.6557638645172119
1772884877876297000,3.099296875,0.1563815027475357,-0.2499966025352478,-0.4245513379573822
1772884877892889300,3.115889404296875,0.10293079167604446,0.2347249686717987,0.11285735666751862
1772884877909500700,3.132500732421875,-0.033139441162347794,0.47571131587028503,0.5571091175079346
1772884877926104300,3.149104248046875,-0.22999076545238495,0.6440047025680542,0.8068002462387085
1772884877942696200,3.1656962890625,-0.4054618179798126,0.732122004032135,0.9094256162643433
1772884877959325400,3.182325439453125,-0.4764748811721802,0.7467827796936035,0.8523097038269043
1772884877975910000,3.198909912109375,-0.403323769569397,0.780380368232727,0.7967209815979004
1772884877992522000,3.21552197265625,-0.2776382565498352,0.7999280095100403,0.8309294581413269
1772884878009143600,3.2321435546875,-0.18646661937236786,0.7382306456565857,0.8309294581413269
1772884878025747700,3.248747802734375,-0.11148291081190109,0.7041749358177185,0.7082982659339905
1772884878042351400,3.265351318359375,-0.07742717117071152,0.5447390675544739,0.4999932050704956
1772884878058966800,3.281966796875,-0.16920967400074005,0.17379115521907806,0.38576140999794006
1772884878075568600,3.298568603515625,-0.34956762194633484,-0.12263119965791702,0.4386012554168701
1772884878092193000,3.315193115234375,-0.40653082728385925,-0.2021963894367218,0.745408296585083
1772884878108795400,3.33179541015625,-0.2736676335334778,-0.09269879758358002,1.507462739944458
1772884878125402600,3.348402587890625,-0.08964447677135468,0.08185594528913498,2.088548183441162
1772884878142004700,3.365004638671875,-0.11957687139511108,0.07452555745840073,2.079385280609131
1772884878158617000,3.3816171875,-0.24327708780765533,-0.076052725315094,1.5202908515930176
1772884878175227400,3.398227294921875,-0.2796235680580139,-0.24648413062095642,0.7031059265136719
1772884878191830000,3.414830078125,-0.2889392673969269,-0.3439171314239502,-0.14553864300251007
1772884878208437000,3.43143701171875,-0.2070833146572113,-0.20555615425109863,-1.2641856670379639
1772884878225043700,3.448043701171875,-0.2344195395708084,0.20463985204696655,-2.1592559814453125
1772884878241650400,3.464650390625,-0.18631389737129211,0.3055853247642517,-2.3747386932373047
1772884878258260700,3.4812607421875,-0.14126259088516235,-0.0884227454662323,-2.0060815811157227
1772884878274844400,3.497844482421875,-0.17272214591503143,-0.564592182636261,-1.4984524250030518
1772884878291457500,3.51445751953125,-0.23869559168815613,-0.8210029006004333,-1.238071084022522
1772884878308064500,3.531064453125,-0.19792033731937408,-0.5983424782752991,-1.3197743892669678
1772884878324671200,3.547671142578125,-0.10705413669347763,-0.07299839705228806,-1.6423112154006958
1772884878341278200,3.5642783203125,0.013591751456260681,0.26481008529663086,-1.640020489692688
1772884878357881900,3.5808818359375,0.09682214260101318,0.3191770911216736,-1.0094548463821411
1772884878374509000,3.597509033203125,0.055741455405950546,0.2376265823841095,-0.4335615932941437
1772884878391099000,3.614098876953125,-0.01664607785642147,0.1843285858631134,-0.18020524084568024
1772884878407705900,3.630705810546875,-0.05665775015950203,0.12186761945486069,-0.07864890247583389
1772884878424312600,3.6473125,-0.044287730008363724,0.003054326167330146,0.044135015457868576
1772884878440919300,3.663919189453125,-0.024892758578062057,-0.03420845419168472,0.33429601788520813
1772884878457524500,3.6805244140625,-0.02886338345706463,0.042760565876960754,0.6426302194595337
1772884878474134800,3.697134765625,-0.05543602257966995,0.24037547409534454,0.8478809595108032
1772884878490756900,3.7137568359375,-0.07712173461914062,0.3448334336280823,0.9469938278198242
1772884878507347700,3.73034765625,-0.04077525436878204,0.23075434565544128,0.8274169564247131
1772884878523953700,3.74695361328125,0.0022907445672899485,0.12049316614866257,0.6382014751434326
1772884878540560400,3.763560302734375,0.02122756652534008,-0.13271047174930573,0.7991644740104675
1772884878557162500,3.78016259765625,-0.021532999351620674,-0.5146539807319641,1.65834641456604
1772884878573779000,3.796779052734375,-0.08964447677135468,-0.6860016584396362,2.532341957092285
1772884878590380800,3.813380859375,-0.16310101747512817,-0.5296201705932617,2.495995283126831
1772884878606988000,3.829988037109375,-0.22617286443710327,-0.18295414745807648,1.4045319557189941
1772884878631908000,3.854908203125,0.06215553730726242,-0.05864306539297104,-1.071763038635254
1772884878648522800,3.871522705078125,0.30833423137664795,-0.2945897579193115,-2.1562016010284424
1772884878665125600,3.888125732421875,0.38988474011421204,-0.43508878350257874,-2.6415340900421143
1772884878681733000,3.904733154296875,0.3634648323059082,-0.45173484086990356,-2.0948095321655273
1772884878698338800,3.9213388671875,0.3868304193019867,-0.6122397184371948,-1.0375546216964722
1772884878714946000,3.937946044921875,0.3651446998119354,-0.9269880056381226,-0.5102251768112183
1772884878731543600,3.95454345703125,0.23426681756973267,-0.8793405294418335,-0.6391177773475647
1772884878748161000,3.9711611328125,0.0685696229338646,-0.34804046154022217,-1.1992812156677246
1772884878764766700,3.9877666015625,-0.11133018881082535,0.21105393767356873,-1.7757853269577026
1772884878781373700,4.004373779296875,-0.17669276893138885,0.5061018466949463,-1.621694564819336
1772884878797980700,4.020980712890625,-0.07757988572120667,0.49266281723976135,-0.7673994898796082
1772884878814588000,4.037587890625,0.05971207842230797,0.28069257736206055,0.16722436249256134
1772884878831159800,4.054159912109375,0.07422012835741043,0.20601430535316467,0.7020368576049805
1772884878847800800,4.07080078125,0.020311269909143448,0.29535335302352905,0.7768678665161133
1772884878864402400,4.08740234375,-0.036651913076639175,0.4427245855331421,0.5253441333770752
1772884878881004300,4.10400439453125,-0.062460970133543015,0.5126686692237854,0.3194825351238251
1772884878897617700,4.12061767578125,-0.03787364438176155,0.5490151643753052,0.43829581141471863
1772884878914214400,4.13721435546875,-0.021838432177901268,0.4812090992927551,0.6724098920822144
1772884878930821600,4.153821533203125,-0.03145955875515938,0.4082106947898865,0.7767151594161987
1772884878947429400,4.170429443359375,-0.040622539818286896,0.3738495409488678,0.6429356932640076
1772884878964035300,4.187035400390625,0.0003054326225537807,0.422871470451355,0.4882340431213379
1772884878980626200,4.203626220703125,0.027641652151942253,0.34605515003204346,0.6701191663742065
1772884878997264100,4.22026416015625,0.034666601568460464,0.09086620807647705,1.2596040964126587
1772884879013853400,4.236853515625,-0.022602014243602753,-0.2603813111782074,1.8646661043167114
1772884879030465800,4.2534658203125,-0.005192354787141085,-0.2796235680580139,1.5462526082992554
1772884879047069400,4.2700693359375,0.055894169956445694,0.44654250144958496,0.17119498550891876
1772884879063676400,4.286676513671875,0.20815233886241913,1.0960450172424316,-1.4123204946517944
1772884879080284400,4.303284423828125,0.5100724697113037,1.0519099235534668,-2.515390396118164
1772884879096907000,4.319906982421875,0.740368664264679,0.6698137521743774,-2.721251964569092
1772884879113510700,4.3365107421875,0.7612907886505127,0.2093740701675415,-2.400700330734253
1772884879130105300,4.353105224609375,0.9451612234115601,-0.26740625500679016,-2.350609540939331
1772884879146725600,4.3697255859375,1.2450960874557495,-0.6333145499229431,-2.4828617572784424
1772884879163327200,4.3863271484375,1.3785701990127563,-0.8675813674926758,-2.629622220993042
1772884879179942400,4.4029423828125,1.2475395202636719,-0.8494081497192383,-2.841592311859131
1772884879196545000,4.419544921875,0.9723447561264038,-0.4050036668777466,-3.093574285507202
1772884879213152800,4.43615283203125,0.6708827614784241,0.19165897369384766,-3.1398472785949707
1772884879229758200,4.45275830078125,0.4433354437351227,0.46150869131088257,-2.8292224407196045
1772884879246349800,4.469349853515625,0.5059491395950317,0.24648413062095642,-2.208735942840576
1772884879262972200,4.48597216796875,0.7440338730812073,-0.22632557153701782,-1.3739886283874512
1772884879279576300,4.502576416015625,0.8984300494194031,-0.6224716901779175,-0.5777258276939392
1772884879296173000,4.519173095703125,0.8741481900215149,-0.7018841505050659,0.14263702929019928
1772884879312779300,4.535779296875,0.6771441102027893,-0.34987306594848633,0.5455026626586914
1772884879329367800,4.552367919921875,0.42241331934928894,0.08750644326210022,0.4964807331562042
1772884879345984800,4.56898486328125,0.22403483092784882,0.2961169183254242,0.2814561724662781
1772884879362600000,4.585599853515625,-0.0022907445672899485,0.1927279829978943,0.2857322096824646
1772884879379206700,4.60220654296875,-0.2612976133823395,-0.1420261710882187,0.6525567770004272
1772884879395813600,4.618813720703125,-0.3706424832344055,-0.31230485439300537,1.2040153741836548
1772884879412421400,4.63542138671875,-0.1160643994808197,0.02428189292550087,2.210874080657959
1772884879429027000,4.652027099609375,0.29764407873153687,0.4999932050704956,3.603952169418335
1772884879445634600,4.668634521484375,0.5108360648155212,0.5923865437507629,4.303698539733887
1772884879462254600,4.685254638671875,0.41431936621665955,0.10705413669347763,3.737579107284546
1772884879478847000,4.701846923828125,0.013439035043120384,-0.9092729091644287,1.687667965888977
1772884879495467000,4.718467041015625,-0.6870706677436829,-1.768760323524475,-1.2779301404953003
1772884879512075000,4.735074951171875,-1.4140002727508545,-0.8384125232696533,-2.853198766708374
1772884879528683000,4.75168310546875,-1.6149749755859375,1.3199270963668823,-2.297311544418335
1772884879545289700,4.768289794921875,-1.1403326988220215,2.649169921875,-0.8301658630371094
1772884879561917400,4.78491748046875,-0.6644686460494995,2.1401662826538086,-0.2684752643108368
1772884879578503000,4.8015029296875,-0.3799581825733185,0.7241807579994202,-0.27870726585388184
1772884879595102200,4.818102294921875,-0.1647808998823166,-0.5571091175079346,-0.4830417037010193
1772884879611726300,4.834726318359375,-0.0455094613134861,-1.236696720123291,-0.5716171264648438
1772884879628324000,4.851323974609375,-0.00427605677396059,-1.0314459800720215,-0.4521929919719696
1772884879644929800,4.8679296875,0,-0.256868839263916,-0.37720927596092224
1772884879661529600,4.884529541015625,-0.04734205827116966,0.31749722361564636,-0.38011088967323303
1772884879678144800,4.901144775390625,-0.11163562536239624,0.4593706727027893,-0.19288070499897003
1772884879694748400,4.91774853515625,-0.16065755486488342,0.32299500703811646,0.14049901068210602
1772884879711361800,4.93436181640625,-0.18875735998153687,0.13729196786880493,0.4963280260562897
1772884879727965200,4.950965087890625,-0.23854288458824158,0.1267545372247696,0.941343367099762
1772884879744572200,4.967572265625,-0.3119994103908539,0.3510948121547699,1.3434454202651978
1772884879761179000,4.984178955078125,-0.34605515003204346,0.5285511612892151,1.5627460479736328
1772884879777808100,5.00080810546875,-0.2577851414680481,0.5842925906181335,1.4080443382263184
1772884879794392800,5.017392822265625,-0.18829920887947083,0.40653082728385925,1.0734429359436035
1772884879810993000,5.033992919921875,-0.2736676335334778,0.2099849283695221,0.7301366925239563
1772884879827596500,5.050596435546875,-0.5146539807319641,0.10491610318422318,0.3819434940814972
1772884879844198400,5.067198486328125,-0.88361656665802,0.010079276748001575,0.3043636083602905
1772884879860806400,5.083806396484375,-1.1136072874069214,0.08735372871160507,0.9873109459877014
1772884879877422300,5.10042236328125,-0.8675813674926758,0.24342979490756989,2.45674729347229
1772884879894020000,5.11702001953125,-0.303600013256073,0.423329621553421,3.6157114505767822
1772884879910626000,5.1336259765625,-0.24007004499435425,-0.021074850112199783,3.3982434272766113
1772884879927251200,5.150251220703125,-0.6551529765129089,-0.875064492225647,0.903775155544281
1772884879943854600,5.1668544921875,-1.0419833660125732,-1.1369729042053223,-2.665510416030884
1772884879960432600,5.1834326171875,-1.2179125547409058,-1.083064079284668,-4.69572114944458
1772884879977054200,5.20005419921875,-1.373377799987793,-0.793361246585846,-3.8851029872894287
1772884879993675000,5.216675048828125,-1.0282388925552368,-0.18799377977848053,-2.0389153957366943
1772884880010277600,5.233277587890625,-0.6743952035903931,-0.39874228835105896,-1.2203559875488281
1772884880026893000,5.24989306640625,-0.630871057510376,-1.179580807685852,-1.0155634880065918
1772884880043494700,5.26649462890625,-0.6966918110847473,-1.9883663654327393,-0.8367326855659485
1772884880060102000,5.283101806640625,-0.7823656797409058,-2.1569652557373047,-0.7560984492301941
1772884880076696000,5.299696044921875,-0.870330274105072,-1.5109752416610718,-0.9796751141548157
1772884880093315800,5.31631591796875,-0.9161451458930969,-0.5566509366035461,-1.0829113721847534
1772884880109913900,5.332913818359375,-0.9508117437362671,0.01038470957428217,-0.8429940342903137
1772884880126534100,5.3495341796875,-1.0085384845733643,0.1621847152709961,-0.4161519408226013
1772884880143149800,5.36614990234375,-1.1122329235076904,0.1875356286764145,-0.05467243865132332
1772884880159743200,5.3827431640625,-1.17240309715271,0.25182920694351196,0.1437060534954071
1772884880176345900,5.399345947265625,-1.144303321838379,0.32986724376678467,0.17730364203453064
1772884880192957200,5.415957275390625,-1.0180069208145142,0.29046642780303955,0.32070425152778625
1772884880209564400,5.432564453125,-0.8484918475151062,0.10461067408323288,0.5787948369979858
1772884880226171400,5.44917138671875,-0.6649268269538879,-0.12858712673187256,0.7967209815979004
1772884880242776600,5.465776611328125,-0.6557638645172119,-0.33475416898727417,0.7895433306694031
1772884880259384300,5.48238427734375,-0.8468119502067566,-0.29306259751319885,0.7469354867935181
1772884880275975200,5.49897509765625,-0.9051495790481567,0.31749722361564636,1.2455542087554932
1772884880292598300,5.515598388671875,-0.5677992701530457,1.2098186016082764,2.409710645675659
1772884880309187300,5.532187255859375,0.01771509274840355,1.6032158136367798,3.478572130203247
1772884880325798400,5.54879833984375,0.31780263781547546,0.8717046976089478,3.545461893081665
1772884880342405400,5.5654052734375,0.014355333521962166,-0.8142833709716797,1.9307923316955566
1772884880359001600,5.582001708984375,-0.5812382698059082,-2.040442705154419,-0.7177666425704956
1772884880375618800,5.598618896484375,-0.9259189963340759,-1.5066990852355957,-2.0537290573120117
1772884880392226000,5.61522607421875,-0.9152288436889648,0.041233405470848083,-1.7380642890930176
1772884880408832500,5.63183251953125,-0.7266241908073425,0.5326744914054871,-1.1589640378952026
1772884880425456600,5.64845654296875,-0.7035640478134155,-0.30222558975219727,-0.9932668805122375
1772884880442058800,5.665058837890625,-0.7861835956573486,-1.6713273525238037,-0.9610437750816345
1772884880458666800,5.681666748046875,-0.720820963382721,-2.5722007751464844,-0.9943358898162842
1772884880475257300,5.69825732421875,-0.5653557777404785,-2.2656991481781006,-1.1705704927444458
1772884880491880400,5.71488037109375,-0.48197266459465027,-1.1823296546936035,-1.4384349584579468
1772884880508482000,5.73148193359375,-0.49816060066223145,-0.24984388053417206,-1.5280793905258179
1772884880525099000,5.74809912109375,-0.5274821519851685,0.10751228034496307,-1.197906732559204
1772884880541701000,5.764701171875,-0.5135849714279175,0.041233405470848083,-0.6013968586921692
1772884880558306600,5.781306640625,-0.46532660722732544,-0.1771509200334549,-0.0708603709936142
1772884880574898200,5.797898193359375,-0.4283692538738251,-0.2874121069908142,0.24159720540046692
1772884880591521500,5.814521484375,-0.4343251883983612,-0.2292271852493286,0.4086688458919525
1772884880608128500,5.83112841796875,-0.46105054020881653,-0.04749477282166481,0.4758640229701996
1772884880624735500,5.847735595703125,-0.4873177409172058,0.14798210561275482,0.5149593949317932
1772884880641341200,5.864341064453125,-0.46441030502319336,0.23518311977386475,0.6293439269065857
1772884880657949000,5.880948974609375,-0.4161519408226013,0.12308934330940247,0.7791585922241211
1772884880674547500,5.89754736328125,-0.42149701714515686,-0.0377209298312664,0.9335548281669617
1772884880691162600,5.91416259765625,-0.5334380865097046,-0.31322115659713745,0.9141598343849182
1772884880707760600,5.9307607421875,-0.7565566301345825,-0.5426010489463806,0.6931793093681335
1772884880724378600,5.947378662109375,-1.0123564004898071,-0.4384485185146332,0.7683157324790955
1772884880740990000,5.963989990234375,-1.0419833660125732,0.1976149082183838,1.51158607006073
1772884880757589800,5.98058984375,-0.7632761001586914,1.1091785430908203,2.730109453201294
1772884880774162200,5.997162109375,-0.4138612151145935,1.7340936660766602,3.4736852645874023
1772884880790800400,6.01380029296875,-0.41859540343284607,1.3417655229568481,3.1196887493133545
1772884880807397000,6.030397216796875,-0.8907942175865173,0.03497203439474106,1.6919440031051636
1772884880824003800,6.04700390625,-1.2365440130233765,-0.9685268402099609,-0.5433646440505981
1772884880840609800,6.06360986328125,-1.180649757385254,-0.9480628371238708,-2.135737657546997
1772884880857217500,6.080217529296875,-0.9115636348724365,-0.4977024495601654,-2.8101327419281006
1772884880873824300,6.09682421875,-0.8216137290000916,-0.5586362481117249,-2.676964282989502
1772884880890431200,6.11343115234375,-0.8509352803230286,-0.8093964457511902,-1.9607247114181519
1772884880907037000,6.130036865234375,-0.8567385077476501,-1.2244794368743896,-1.4372131824493408
1772884880923662000,6.146662109375,-0.8035932183265686,-1.779603123664856,-1.2214250564575195
1772884880940265200,6.16326513671875,-0.7160868048667908,-2.1172590255737305,-0.8863654732704163
1772884880956872200,6.1798720703125,-0.6974554061889648,-1.9207130670547485,-0.504574716091156
1772884880973456000,6.196455810546875,-0.7974845767021179,-1.444696307182312,-0.4605923891067505
1772884880990069200,6.2130693359375,-0.9724974632263184,-0.9017898440361023,-0.6389650702476501
1772884881006692900,6.22969287109375,-1.1873693466186523,-0.45463645458221436,-0.6285803318023682
1772884881023300400,6.24630029296875,-1.3603968620300293,-0.2822197377681732,-0.26251932978630066
1772884881039905800,6.26290576171875,-1.471421718597412,-0.2330450862646103,0.36621370911598206
1772884881056513000,6.279512939453125,-1.5175420045852661,-0.096211276948452,0.9108000993728638
1772884881073090300,6.29609033203125,-1.5028811693191528,0.12049316614866257,1.1989758014678955
1772884881089712000,6.312712158203125,-1.4604260921478271,0.21181751787662506,1.31748366355896
1772884881106329300,6.329329345703125,-1.3607022762298584,0.07269296050071716,1.3197743892669678
1772884881122945000,6.345945068359375,-1.236391305923462,-0.17379115521907806,1.2151637077331543
1772884881139547600,6.362547607421875,-1.2148582935333252,-0.5688682794570923,0.9941831827163696
1772884881156154000,6.379154052734375,-1.296408772468567,-0.8251262307167053,0.8578075170516968
1772884881172739600,6.395739501953125,-1.5601497888565063,-0.8153523802757263,0.6913467645645142
1772884881189368800,6.412368896484375,-1.813048005104065,-0.44944411516189575,0.82207190990448
1772884881205971000,6.428970947265625,-1.8455766439437866,0.3588833212852478,1.5111279487609863
1772884881222586000,6.445586181640625,-1.5401439666748047,1.2759448289871216,2.577087640762329
1772884881239187700,6.462187744140625,-1.0517572164535522,1.6972891092300415,3.2621731758117676
1772884881255795200,6.478795166015625,-0.727082371711731,0.8660541772842407,2.7348437309265137
1772884881272407800,6.49540771484375,-0.6899722814559937,-0.4944954216480255,1.2275336980819702
1772884881288992300,6.5119921875,-0.769079327583313,-1.3124439716339111,-0.18555031716823578
1772884881305598200,6.52859814453125,-0.7896960377693176,-1.606881022453308,-1.2122620344161987
1772884881322212400,6.54521240234375,-0.8730791807174683,-1.3075571060180664,-1.796554684638977
1772884881338816300,6.561816162109375,-0.9810495972633362,-0.8802568316459656,-1.8933768272399902
1772884881355406300,6.57840625,-1.0374019145965576,-0.6369797587394714,-1.7915149927139282
1772884881372028700,6.595028564453125,-1.0555751323699951,-0.6160575747489929,-1.7321083545684814
1772884881388637000,6.611636962890625,-1.0317513942718506,-0.6762278079986572,-1.744478464126587
1772884881405242600,6.62824267578125,-0.9277516007423401,-0.6856962442398071,-1.7441730499267578
1772884881421859300,6.644859375,-0.8077165484428406,-0.6385068893432617,-1.5801557302474976
1772884881438469600,6.6614697265625,-0.7447974681854248,-0.5768095254898071,-1.2873984575271606
1772884881455077600,6.67807763671875,-0.7177666425704956,-0.5028948187828064,-0.9595165848731995
1772884881471684400,6.694684326171875,-0.8136724829673767,-0.48915034532546997,-0.633009135723114
1772884881488291800,6.711291748046875,-0.9592111706733704,-0.5393940210342407,-0.28619036078453064
1772884881504893200,6.72789306640625,-1.0757336616516113,-0.6675229668617249,0.05696318298578262
1772884881521510000,6.744510009765625,-1.1099421977996826,-0.6794348955154419,0.6111706495285034
1772884881538112000,6.761112060546875,-1.1035280227661133,-0.5954409241676331,1.0876455307006836
1772884881554718500,6.777718505859375,-1.1042916774749756,-0.5422956347465515,1.3040446043014526
1772884881571324400,6.794324462890625,-1.109636664390564,-0.39553526043891907,1.226922869682312
1772884881587932400,6.810932373046875,-1.1537717580795288,-0.36300668120384216,0.8761335015296936
1772884881604535800,6.827535888671875,-1.2701416015625,-0.7994698882102966,0.34376442432403564
1772884881621146400,6.844146484375,-1.3190107345581055,-1.4651602506637573,-0.035124752670526505
1772884881637756400,6.86075634765625,-1.334587812423706,-1.635897159576416,0.3387247920036316
1772884881654359600,6.877359619140625,-1.3335188627243042,-0.9793696999549866,1.514487624168396
1772884881670964700,6.89396484375,-1.2385293245315552,-0.04077525436878204,2.568230152130127
1772884881687573500,6.910573486328125,-1.1282681226730347,0.4112650156021118,2.4616341590881348
1772884881704179500,6.927179443359375,-1.0080803632736206,0.13011430203914642,1.1690434217453003
1772884881720785700,6.94378564453125,-0.7307475209236145,-0.6212499737739563,-0.15561792254447937
1772884881737396500,6.960396484375,-0.19379699230194092,-1.4479033946990967,-1.0778716802597046
1772884881754000600,6.977000732421875,0.21624629199504852,-1.9327776432037354,-1.4161384105682373
1772884881770586600,6.993586669921875,0.4703662395477295,-1.7690657377243042,-1.060614824295044
1772884881787200800,7.01020068359375,0.7742717266082764,-1.4283556938171387,-0.48517972230911255
1772884881803805200,7.02680517578125,0.9515753388404846,-1.4569135904312134,0.07391469180583954
1772884881820418000,7.04341796875,0.9534079432487488,-1.4966198205947876,0.1290452778339386
1772884881837020400,7.0600205078125,0.8339837789535522,-1.1377365589141846,-0.37568211555480957
1772884881853628400,7.07662841796875,0.5960517525672913,-0.48747047781944275,-0.7319692969322205
1772884881870235100,7.093235107421875,0.39095374941825867,0.0705549344420433,-0.4645630121231079
1772884881886842000,7.109842041015625,0.24526239931583405,0.37919458746910095,0.1667662113904953
1772884881903460900,7.1264609375,0.1111774742603302,0.5148066878318787,0.7605272531509399
1772884881920074000,7.143073974609375,-0.04948008432984352,0.5694791078567505,1.178053617477417
1772884881936676600,7.159676513671875,-0.24190263450145721,0.6291912198066711,1.3614659309387207
1772884881953282800,7.17628271484375,-0.42577308416366577,0.6429356932640076,1.2693779468536377
1772884881969889000,7.192888916015625,-0.48487427830696106,0.7385360598564148,1.084591269493103
1772884881986496800,7.209496826171875,-0.4352414906024933,0.8964447379112244,0.9807441234588623
1772884882003106000,7.22610595703125,-0.3851505517959595,1.0569496154785156,0.9477574229240417
1772884882019705300,7.242705322265625,-0.38408151268959045,1.0740537643432617,0.9476047158241272
1772884882036320300,7.2593203125,-0.36911532282829285,0.9770789742469788,0.9491318464279175
1772884882052924000,7.275923828125,-0.2819143235683441,0.8613200187683105,0.9615018963813782
1772884882069508000,7.292508056640625,-0.18555031716823578,0.712574303150177,1.0960450172424316
1772884882086144500,7.30914453125,-0.09269879758358002,0.4466952085494995,1.3403910398483276
1772884882102742500,7.325742431640625,0.02672535367310047,0.18066339194774628,1.5056301355361938
1772884882119353300,7.342353271484375,-0.032681290060281754,0.07024950534105301,1.477835774421692
1772884882135958500,7.35895849609375,-0.24404066801071167,0.2793181240558624,1.1427761316299438
1772884882152565000,7.37556494140625,-0.2970332205295563,0.9356928467750549,0.694553792476654
1772884882169192700,7.392192626953125,-0.15134187042713165,1.3513866662979126,0.4242459237575531
1772884882185785900,7.408785888671875,0.04581489413976669,1.0823005437850952,0.21365012228488922
1772884882202375400,7.42537548828125,0.20723603665828705,0.5792529582977295,-0.4193589985370636
1772884882218997200,7.441997314453125,0.45982882380485535,0.5169447064399719,-1.2750284671783447
1772884882235598600,7.4585986328125,0.47219884395599365,0.7967209815979004,-1.5957326889038086
1772884882252206000,7.4752060546875,0.3023782968521118,0.8287914395332336,-1.3825408220291138
1772884882268805600,7.4918056640625,0.21853704750537872,0.5218316316604614,-1.0319041013717651
1772884882285406200,7.50840625,0.24984388053417206,0.06963863968849182,-0.7389942407608032
1772884882302012200,7.52501220703125,0.2541199326515198,-0.0959058403968811,-0.4688390791416168
1772884882318620200,7.5416201171875,0.17241671681404114,0.15546520054340363,-0.4043927788734436
1772884882335227000,7.558226806640625,0.12736541032791138,0.7093672752380371,-0.6382014751434326
1772884882351833600,7.57483349609375,0.2116648107767105,1.2021827697753906,-0.9544769525527954
1772884882368429600,7.5914296875,0.34574973583221436,1.1621711254119873,-1.032820463180542
1772884882385047300,7.60804736328125,0.4749477207660675,0.720820963382721,-0.637132465839386
1772884882401667000,7.6246669921875,0.4619668424129486,0.27030786871910095,0.09010262042284012
1772884882418279000,7.64127880859375,0.32162055373191833,0.03405573591589928,0.7029531598091125
1772884882434880500,7.657880615234375,0.1595885455608368,-0.06490442901849747,1.003804326057434
1772884882451491800,7.674491943359375,0.08032877743244171,-0.020005837082862854,1.0018190145492554
1772884882468075500,7.691075439453125,0.1264491081237793,0.18035796284675598,0.6957755088806152
1772884882484702500,7.707702392578125,0.1992947906255722,0.49816060066223145,0.3903428912162781
1772884882501311700,7.724311767578125,0.17318029701709747,0.5071708559989929,0.5612324476242065
1772884882517901600,7.740901611328125,0.15332718193531036,0.21471913158893585,1.226617455482483
1772884882534506500,7.757506591796875,0.1973094791173935,-0.19593502581119537,1.8096883296966553
1772884882551112700,7.77411279296875,0.18677204847335815,-0.5042692422866821,1.994780421257019
1772884882567726000,7.79072607421875,0.07941248267889023,-0.5065600275993347,1.6462818384170532
1772884882584343300,7.80734326171875,0.004886921960860491,-0.11163562536239624,0.7188356518745422
1772884882600948700,7.82394873046875,0.06215553730726242,0.3920227587223053,-0.22678372263908386
1772884882617558500,7.84055859375,0.11667526513338089,0.44623705744743347,-0.589790403842926
1772884882634162700,7.85716259765625,0.13454307615756989,0.0734565481543541,-0.5451972484588623
1772884882650770200,7.873770263671875,0.09957103431224823,-0.14996741712093353,-0.5068654417991638
1772884882667392500,7.890392578125,0.07360926270484924,0.017409659922122955,-0.6270532011985779
1772884882683984100,7.906984130859375,0.14676037430763245,0.29138273000717163,-0.7258606553077698
1772884882700590300,7.92359033203125,0.26603180170059204,0.34513887763023376,-0.6496551632881165
1772884882717202200,7.9402021484375,0.342695415019989,0.1716531366109848,-0.44135013222694397
1772884882733801200,7.95680126953125,0.3504839241504669,0.011301007121801376,-0.3124575614929199
1772884882750408000,7.973407958984375,0.3000875413417816,0.04245513305068016,-0.38026362657546997
1772884882766990800,7.989990966796875,0.2405281960964203,0.19517144560813904,-0.49006664752960205
1772884882783611600,8.006611572265625,0.20005837082862854,0.32299500703811646,-0.4334088861942291
1772884882800202000,8.023201904296876,0.18509216606616974,0.2756529450416565,-0.27519479393959045
1772884882816828700,8.03982861328125,0.206777885556221,0.17516560852527618,-0.11178833991289139
1772884882833431300,8.056431396484374,0.24113905429840088,0.08552113175392151,0.013591751456260681
1772884882850044400,8.07304443359375,0.24144448339939117,0.08750644326210022,0.06505715101957321
1772884882866634000,8.089634033203126,0.19624045491218567,0.1518000066280365,0.06551529467105865
1772884882883253000,8.1062529296875,0.14187344908714294,0.18738290667533875,0.07208210229873657
1772884882899872000,8.1228720703125,0.10125091671943665,0.17180584371089935,0.12492194026708603
1772884882916483600,8.139483642578124,0.058184914290905,0.17318029701709747,0.23365595936775208
1772884882933086700,8.156086669921875,0.008857546374201775,0.12797626852989197,0.31413745880126953
1772884882949693700,8.172693603515626,-0.009468411095440388,0.09178250283002853,0.27748554944992065
1772884882966289000,8.189288818359374,-0.008857546374201775,0.12980885803699493,0.14126259088516235
1772884882982906400,8.20590625,-0.021532999351620674,0.1889100819826126,-0.01038470957428217
1772884882999514600,8.2225146484375,-0.053297992795705795,0.15424346923828125,-0.09529497474431992
1772884883016121000,8.23912109375,-0.08781187981367111,0.07192938029766083,-0.1267545372247696
1772884883032726800,8.255726806640626,-0.09972374886274338,-0.047800205647945404,-0.12079860270023346
1772884883049334800,8.272334716796875,-0.03894266113638878,-0.06887505948543549,-0.17501288652420044
1772884883065925000,8.288925048828125,-0.004734205547720194,-0.02535090781748295,-0.34758231043815613
1772884883082548700,8.305548828125,-0.06322455406188965,0.014966198243200779,-0.6126978397369385
1772884883099151000,8.322151123046876,-0.17730364203453064,0.026419922709465027,-0.9601274728775024
1772884883115765800,8.338765869140625,-0.28680121898651123,0.15683965384960175,-1.3800972700119019
1772884883132352500,8.3553525390625,-0.3949243724346161,0.2269364446401596,-1.829999566078186
1772884883148975400,8.371975341796874,-0.4170682430267334,0.19944749772548676,-2.0819814205169678
1772884883165569000,8.388569091796874,-0.3090978264808655,0.22571471333503723,-1.859321117401123
1772884883182189600,8.405189453125,-0.29504790902137756,0.040164388716220856,-1.5170838832855225
1772884883198796500,8.421796630859374,-0.29397889971733093,-0.2151772826910019,-1.3668110370635986
1772884883215403800,8.43840380859375,-0.10201449692249298,-0.4141666293144226,-1.3634512424468994
1772884883232009000,8.455009033203124,0.30344730615615845,-0.4024074673652649,-0.9308059215545654
1772884883248599600,8.471599609375,0.688903272151947,0.14645494520664215,-0.44165557622909546
1772884883265210000,8.488210205078126,1.0497719049453735,1.0922271013259888,-0.337044894695282
1772884883281817000,8.504817138671875,1.5027284622192383,1.6510159969329834,-0.28878653049468994
1772884883298422500,8.521422607421876,1.8654297590255737,1.246165156364441,0.41599923372268677
1772884883315030800,8.53803076171875,2.1704041957855225,-0.03222314268350601,1.1186469793319702
1772884883331634200,8.55463427734375,2.2603540420532227,-0.6204863786697388,1.0900890827178955
1772884883348247300,8.571247314453124,2.0865628719329834,0.5404630303382874,0.34605515003204346
1772884883364857600,8.587857666015625,1.7047722339630127,2.2119431495666504,-0.7967209815979004
1772884883381461500,8.60446142578125,1.1258246898651123,2.557692766189575,-1.3920091390609741
1772884883398079000,8.621078857421875,0.6707300543785095,1.6206254959106445,-1.058171272277832
1772884883414685000,8.637684814453126,0.4990769028663635,0.41752639412879944,-0.3978259861469269
1772884883431291100,8.654291015625,0.5894849896430969,-0.37980547547340393,-0.13255776464939117
1772884883447899000,8.67089892578125,0.5874996781349182,-0.536797821521759,-0.22800545394420624
1772884883464519700,8.687519775390625,0.40622538328170776,-0.5714644193649292,-0.31230485439300537
1772884883481113300,8.70411328125,0.23167064785957336,-0.4940372705459595,-0.14217889308929443
1772884883497709800,8.720709716796875,0.16539175808429718,-0.41813725233078003,0.11911872029304504
1772884883514335200,8.737335205078125,0.04214970022439957,-0.3214678466320038,0.20983220636844635
1772884883530933500,8.75393359375,-0.1391245573759079,0.0009162978967651725,0.15714508295059204
1772884883547539700,8.770539794921875,-0.34574973583221436,0.31261029839515686,0.05696318298578262
1772884883564151300,8.7871513671875,-0.4918992519378662,0.37919458746910095,-0.012217304669320583
1772884883580761300,8.80376123046875,-0.5606215596199036,0.15683965384960175,-0.027947084978222847
1772884883597357600,8.820357666015624,-0.6111706495285034,-0.029168816283345222,0.03481931984424591
1772884883613971000,8.836970947265625,-0.6401867866516113,0.057879481464624405,0.16859880089759827
1772884883630572800,8.85357275390625,-0.6551529765129089,0.055894169956445694,0.36422839760780334
1772884883647181000,8.87018115234375,-0.6366742849349976,-0.3274237811565399,0.5331326723098755
1772884883663753200,8.886753173828126,-0.5807801485061646,-0.49037206172943115,0.6633996367454529
1772884883680394800,8.903394775390625,-0.5210680365562439,-0.2565633952617645,0.6013968586921692
1772884883696996400,8.919996337890625,-0.49006664752960205,-0.15531249344348907,0.5988006591796875
1772884883713613000,8.936613037109375,-0.19593502581119537,-0.40775254368782043,1.0806206464767456
1772884883730212000,8.953212158203126,0.4109596014022827,-0.603687584400177,2.1511619091033936
1772884883746808300,8.969808349609375,1.1160508394241333,-0.04932736977934837,3.1552717685699463
1772884883763398400,8.9863984375,1.5256359577178955,1.0089967250823975,3.6441166400909424
1772884883780025300,9.003025390625,1.631773829460144,2.3208298683166504,3.833179473876953
1772884883796629000,9.01962890625,1.2096658945083618,2.4698808193206787,3.4182491302490234
1772884883813236000,9.036236083984376,0.294437050819397,0.8460483551025391,2.0839667320251465
1772884883829841200,9.052841064453125,-0.6811147332191467,-0.9001099467277527,-0.19944749772548676
1772884883846450000,9.069449951171874,-1.4897476434707642,-1.0228939056396484,-3.050813674926758
1772884883863043300,9.086043212890624,-1.934457540512085,0.3162754774093628,-5.472741603851318
1772884883879680000,9.102679931640624,-1.8383989334106445,1.1775954961776733,-6.1456098556518555
1772884883896266200,9.119266357421875,-1.421025276184082,0.5453499555587769,-4.581183910369873
1772884883912890400,9.135890380859376,-0.9947940707206726,-0.6520986557006836,-2.7423267364501953
1772884883929497300,9.152497314453125,-0.8280278444290161,-1.585806131362915,-2.1032090187072754
1772884883946104300,9.169104248046875,-0.8022187948226929,-1.787697196006775,-1.906663179397583
1772884883962709500,9.18570947265625,-0.4155410826206207,-1.320690631866455,-1.5268577337265015
1772884883979317200,9.202317138671875,0.02321287989616394,-0.7049384713172913,-1.1122329235076904
1772884883995924500,9.218924560546874,0.33047810196876526,-0.192422553896904,-0.7199047207832336
1772884884012527900,9.23552783203125,0.47250425815582275,0.12400564551353455,-0.3170390725135803
1772884884029141800,9.252141845703125,0.37858372926712036,0.058795779943466187,0.04703662544488907
1772884884045745400,9.268745361328126,0.2151772826910019,-0.14446963369846344,0.34574973583221436
1772884884062351600,9.2853515625,0.15546520054340363,-0.1569923609495163,0.460897833108902
1772884884078948400,9.3019482421875,0.14584407210350037,0.013591751456260681,0.43020185828208923
1772884884095564800,9.318564697265625,0.19914206862449646,0.16539175808429718,0.4082106947898865
1772884884112169000,9.3351689453125,0.2837468981742859,0.2580905556678772,0.5714644193649292
1772884884128784100,9.3517841796875,0.3020728528499603,0.28955012559890747,0.8017606139183044
1772884884145386500,9.368386474609375,0.17608191072940826,0.11530081182718277,0.9132435321807861
1772884884161992700,9.38499267578125,0.07971791177988052,-0.08368854224681854,0.8289441466331482
1772884884178599000,9.401598876953125,0.08445212244987488,-0.12476922571659088,0.6264423131942749
1772884884195207400,9.41820751953125,0.13286319375038147,-0.03130684420466423,0.46181413531303406
1772884884211809500,9.4348095703125,0.16279558837413788,0.18341228365898132,0.32788193225860596
1772884884228406500,9.451406494140626,0.12278391420841217,0.3130684494972229,0.2402227520942688
1772884884245013800,9.468013671875,0.11331550031900406,0.29596421122550964,0.3159700334072113
1772884884261598200,9.48459814453125,0.1108720451593399,0.19288070499897003,0.43646320700645447
1772884884278217500,9.501217529296875,0.11102475970983505,0.05467243865132332,0.46441030502319336
1772884884294833200,9.517833251953125,0.10216721147298813,0.06704246252775192,0.3831652104854584
1772884884311441000,9.53444091796875,0.06948592513799667,0.07406741380691528,0.28955012559890747
1772884884328047900,9.5510478515625,0.10125091671943665,0.07712173461914062,0.3136793076992035
1772884884344654600,9.567654541015624,0.17027868330478668,0.09224065393209457,0.4060726761817932
1772884884361260500,9.584260498046875,0.21792617440223694,0.16264286637306213,0.4579962193965912
1772884884377868500,9.60086865234375,0.21181751787662506,0.31062498688697815,0.46334129571914673
1772884884394488800,9.61748876953125,0.16630806028842926,0.42088615894317627,0.531758189201355
1772884884411092200,9.63409228515625,0.1371392458677292,0.4841107130050659,0.6269004344940186
1772884884427704800,9.650704833984374,0.07376197725534439,0.2295326143503189,0.5141957998275757
1772884884444309200,9.667309326171875,0.026114489883184433,0.1898263692855835,0.13576480746269226
1772884884460916000,9.683916015625,0.041233405470848083,0.19165897369384766,-0.19318613409996033
1772884884477506600,9.700506591796875,0.01572977937757969,-0.05146539583802223,-0.3929390609264374
1772884884494129400,9.71712939453125,-0.01771509274840355,-0.2971859276294708,-0.351400226354599
