time,seconds_elapsed,z,y,x
1772884874949325300,0.1723251953125,8.507680892944336,5.36351203918457,0.42412781715393066
1772884874965935400,0.188935302734375,8.349156379699707,5.348556995391846,0.30987054109573364
1772884874982539000,0.2055390625,8.051848411560059,5.3934221267700195,0.2925225794315338
1772884874999146200,0.222146240234375,8.112865447998047,5.469394207000732,0.37926238775253296
1772884875015764200,0.23876416015625,8.397012710571289,5.38624382019043,0.41994038224220276
1772884875032374000,0.2553740234375,8.493922233581543,5.30129861831665,0.3852444589138031
1772884875048984000,0.271984130859375,8.394021987915039,5.252843856811523,0.33738797903060913
1772884875065587700,0.288587646484375,7.9657063484191895,5.364109992980957,0.22133609652519226
1772884875082193200,0.305193115234375,7.6049885749816895,5.460421085357666,0.21415762603282928
1772884875098801200,0.32180126953125,7.694719314575195,5.542375564575195,0.28175488114356995
1772884875115405600,0.338405517578125,8.075776100158691,5.350949764251709,0.2063809484243393
1772884875132018000,0.355017822265625,8.345566749572754,5.2109694480896,0.11246266216039658
1772884875148619300,0.371619384765625,8.571090698242188,5.185246467590332,0.06340979784727097
1772884875165212000,0.3882119140625,8.609375953674316,5.138586521148682,-0.04247260093688965
1772884875181837000,0.404837158203125,8.679964065551758,5.178068161010742,-0.06640082597732544
1772884875198441500,0.42144140625,8.613563537597656,5.200201988220215,0.029910283163189888
1772884875215034600,0.43803466796875,8.337790489196777,5.359922885894775,0.07537391036748886
1772884875231657700,0.45465771484375,8.10807991027832,5.36650276184082,0.11545369029045105
1772884875248260400,0.47126025390625,8.097909927368164,5.423332691192627,0.13459627330303192
1772884875264876000,0.4878759765625,8.088338851928711,5.400600910186768,0.03888336941599846
1772884875281468200,0.50446826171875,8.088338851928711,5.391029357910156,0.024526432156562805
1772884875298082000,0.52108203125,8.170292854309082,5.36769962310791,0.06699903309345245
1772884875314689000,0.53768896484375,8.233104705810547,5.348556995391846,0.1381855010986328
1772884875331296300,0.554296142578125,8.074580192565918,5.408377170562744,0.1824527233839035
1772884875347904300,0.570904296875,7.9005022048950195,5.459823131561279,0.11246266216039658
1772884875364509400,0.587509521484375,7.9830546379089355,5.422136306762695,0.13998012244701385
1772884875381115000,0.604114990234375,8.01236629486084,5.398806095123291,0.15912270545959473
1772884875397724400,0.620724365234375,7.968697547912598,5.435894966125488,0.2267199456691742
1772884875414313700,0.637313720703125,7.892127513885498,5.477769374847412,0.27038896083831787
1772884875430925600,0.653925537109375,7.786843299865723,5.467001438140869,0.28534409403800964
1772884875447529700,0.67052978515625,7.964509963989258,5.463412284851074,0.3367897868156433
1772884875464138500,0.687138427734375,8.129016876220703,5.4071807861328125,0.4265206456184387
1772884875480745200,0.7037451171875,8.321639060974121,5.351547718048096,0.47258245944976807
1772884875497351400,0.720351318359375,8.489136695861816,5.325226783752441,0.4043870270252228
1772884875513961200,0.736961181640625,8.57348346710205,5.398207664489746,0.3613162338733673
1772884875530567200,0.753567138671875,8.34736156463623,5.388038158416748,0.16689938306808472
1772884875547187000,0.77018701171875,7.957331657409668,5.494519233703613,0.035892341285943985
1772884875563794000,0.7867939453125,7.596015453338623,5.582455158233643,-0.02392822690308094
1772884875580398000,0.803398193359375,7.701299667358398,5.592624664306641,-0.0005982056609354913
1772884875596991200,0.8199912109375,8.114660263061523,5.515456199645996,0.08255238085985184
1772884875613613600,0.836613525390625,8.400003433227539,5.360520839691162,0.04187439754605293
1772884875630205400,0.853205322265625,8.328817367553711,5.303092956542969,-0.039481572806835175
1772884875646822000,0.86982177734375,7.974679470062256,5.332405090332031,0.015553346835076809
1772884875663437800,0.886437744140625,7.710272789001465,5.396413326263428,0.05563312768936157
1772884875680063700,0.903063720703125,7.503891944885254,5.376074314117432,-0.07238288223743439
1772884875696646100,0.919646240234375,7.293323516845703,5.3078789710998535,-0.2584248483181
1772884875713254700,0.936254638671875,7.09711217880249,5.330012321472168,-0.26201409101486206
1772884875729843700,0.95284375,7.036095142364502,5.332405090332031,-0.07477571070194244
1772884875746463000,0.969462890625,7.144968509674072,5.2731828689575195,0.3206382393836975
1772884875763083000,0.9860830078125,7.107281684875488,5.196014404296875,0.9182456731796265
1772884875779682600,1.0026826171875,6.7310099601745605,5.146363258361816,1.8191434144973755
1772884875796287500,1.01928759765625,6.3732829093933105,5.4071807861328125,2.7702903747558594
1772884875812896000,1.03589599609375,7.431509017944336,5.459823131561279,3.022733211517334
1772884875829502700,1.052502685546875,8.889336585998535,4.449453830718994,2.7248268127441406
1772884875846109400,1.069109375,9.33440113067627,4.059423446655273,2.4089741706848145
1772884875862717700,1.0857177734375,9.361320495605469,4.085744857788086,2.145763635635376
1772884875879322400,1.102322265625,9.230313301086426,3.9122650623321533,2.1068804264068604
1772884875895928600,1.118928466796875,8.93838882446289,3.872185230255127,1.989033818244934
1772884875912520000,1.13552001953125,8.81814956665039,3.8153557777404785,1.7641085386276245
1772884875929131800,1.1521318359375,8.462217330932617,3.7950167655944824,1.441077470779419
1772884875945738500,1.168738525390625,8.274978637695312,3.7986059188842773,1.2891331911087036
1772884875962344700,1.1853447265625,7.963912010192871,3.7387852668762207,1.1802598237991333
1772884875978954500,1.20195458984375,7.820342540740967,3.7052857875823975,1.0037890672683716
1772884875995560200,1.218560302734375,7.940581798553467,3.62153697013855,0.8733802437782288
1772884876012162600,1.23516259765625,8.014161109924316,3.414557933807373,0.5413761138916016
1772884876028773400,1.2517734375,8.1224365234375,3.3846476078033447,0.2105683982372284
1772884876045391400,1.268391357421875,7.999804496765137,3.4480574131011963,-0.09930214285850525
1772884876061994200,1.284994140625,7.926225185394287,3.4301111698150635,-0.357128769159317
1772884876078604800,1.301604736328125,7.875975608825684,3.442075490951538,-0.7250252366065979
1772884876095211500,1.31821142578125,7.522436141967773,3.556332588195801,-1.0666006803512573
1772884876111825700,1.33482568359375,6.891927242279053,3.675973892211914,-1.3298112154006958
1772884876128410400,1.351410400390625,6.385247230529785,3.914059638977051,-1.2634103298187256
1772884876145040600,1.36804052734375,5.974279880523682,4.190430641174316,-1.1150553226470947
1772884876161646000,1.38464599609375,5.843272686004639,4.2795634269714355,-1.0660024881362915
1772884876178231600,1.4012314453125,5.745167255401611,4.431507587432861,-1.0019944906234741
1772884876194851000,1.41785107421875,5.530411243438721,4.502694129943848,-0.6945167779922485
1772884876211462100,1.434462158203125,5.8683977127075195,4.5547380447387695,-0.12681959569454193
1772884876228084000,1.451083984375,6.751348972320557,4.41057014465332,0.5509474277496338
1772884876244680200,1.46768017578125,8.01655387878418,4.481756687164307,1.0947163105010986
1772884876261280800,1.48428076171875,9.638887405395508,4.747958183288574,1.1306086778640747
1772884876277887200,1.50088720703125,11.718250274658203,5.161916732788086,1.2556337118148804
1772884876294494200,1.517494140625,13.555938720703125,5.84865665435791,1.0683952569961548
1772884876311100000,1.534099853515625,14.957534790039062,6.716054916381836,-0.1621137410402298
1772884876327688000,1.55068798828125,15.79980754852295,7.509873867034912,-0.7872386574745178
1772884876344314600,1.567314697265625,16.23051643371582,7.799405574798584,0.13040883839130402
1772884876360927000,1.583927001953125,19.239490509033203,7.805387496948242,2.170290231704712
1772884876377531400,1.600531494140625,23.81217384338379,6.265605926513672,3.366701364517212
1772884876394124300,1.617124267578125,26.547170639038086,4.286741733551025,3.844069480895996
1772884876410726400,1.633726318359375,25.716861724853516,2.888735055923462,4.545764923095703
1772884876427333400,1.65033349609375,21.04128646850586,2.6967110633850098,5.460421085357666
1772884876443945200,1.6669453125,14.761322975158691,3.758526086807251,5.986842155456543
1772884876460551700,1.6835517578125,9.878767967224121,4.779065132141113,5.816353797912598
1772884876477155000,1.700155029296875,7.576872825622559,4.8502516746521,5.241477966308594
1772884876493764400,1.716764404296875,6.650252342224121,4.150351047515869,4.150949001312256
1772884876510370800,1.733370849609375,6.020939826965332,3.3020951747894287,2.823530673980713
1772884876526985700,1.74998583984375,5.163113117218018,2.7050859928131104,1.5852450132369995
1772884876543601000,1.766600830078125,4.121038913726807,2.4777679443359375,1.0875378847122192
1772884876560176000,1.783176025390625,2.71645188331604,2.4885356426239014,1.4590235948562622
1772884876576810000,1.79981005859375,1.217348575592041,2.600399971008301,1.597209095954895
1772884876593418200,1.816418212890625,0.6275177597999573,2.4837498664855957,1.0211371183395386
1772884876610045200,1.833045166015625,1.2711870670318604,1.8317056894302368,0.2470589429140091
1772884876626631000,1.849630859375,1.8951154947280884,1.578664779663086,-0.18843477964401245
1772884876643239200,1.8662392578125,2.3407788276672363,1.4231312274932861,0.15194423496723175
1772884876659838200,1.882838134765625,2.039283037185669,1.6247265338897705,0.8009973764419556
1772884876676457200,1.899457275390625,1.4213366508483887,1.698904037475586,0.8961120843887329
1772884876693068000,1.916068115234375,1.2675977945327759,1.932802438735962,0.7597211599349976
1772884876709667600,1.93266748046875,1.695314884185791,2.4670002460479736,0.34995031356811523
1772884876726292700,1.949292724609375,3.0933215618133545,2.848057270050049,0.11066804826259613
1772884876742882300,1.96588232421875,6.558128833770752,3.57906436920166,0.09631111472845078
1772884876759485200,1.982485107421875,12.285947799682617,4.992026329040527,0.5288137793540955
1772884876776094200,1.99909423828125,16.925033569335938,6.26859712600708,0.9523434042930603
1772884876792700700,2.01570068359375,15.79980754852295,7.6767730712890625,0.47617170214653015
1772884876809306400,2.032306396484375,9.169296264648438,8.061419486999512,-0.35413774847984314
1772884876825900500,2.048900634765625,6.549753665924072,8.524430274963379,-0.11066804826259613
1772884876842521600,2.065521484375,12.221342086791992,7.509873867034912,1.552343726158142
1772884876859128000,2.082128173828125,17.153547286987305,6.623332977294922,1.7377874851226807
1772884876875734500,2.098734619140625,16.504493713378906,7.062416076660156,1.0558329820632935
1772884876892340000,2.115340087890625,11.722437858581543,8.150551795959473,0.3595215976238251
1772884876908935700,2.131935791015625,6.860820770263672,9.062217712402344,0.015553346835076809
1772884876925543400,2.14854345703125,2.9868409633636475,8.782855987548828,1.0253244638442993
1772884876942148000,2.165148193359375,1.765903115272522,7.454838752746582,1.4530415534973145
1772884876958784500,2.181784423828125,3.01196551322937,5.509474277496338,0.45104706287384033
1772884876975362600,2.198362548828125,5.911468505859375,4.011567115783691,-0.98703932762146
1772884876991959800,2.214959716796875,8.528617858886719,2.8420751094818115,-0.7621139883995056
1772884877008575500,2.231575439453125,8.819944381713867,2.7451658248901367,0.373878538608551
1772884877025184300,2.248184326171875,7.554739475250244,2.9617161750793457,1.4159528017044067
1772884877041790200,2.264790283203125,5.6859450340271,2.953939437866211,1.7228323221206665
1772884877058396400,2.281396484375,4.3417768478393555,2.2396819591522217,1.1988041400909424
1772884877075015700,2.298015625,3.2440693378448486,1.5176477432250977,0.2626122832298279
1772884877091615200,2.314615234375,2.606382131576538,1.2783654928207397,-0.5629115104675293
1772884877108227300,2.331227294921875,2.2821545600891113,1.0354939699172974,-1.0941181182861328
1772884877124823000,2.347822998046875,2.1056840419769287,0.8506484627723694,-1.5583257675170898
1772884877141442600,2.364442626953125,2.6273193359375,0.7387840151786804,-1.8490537405014038
1772884877158053400,2.381053466796875,3.7812578678131104,1.1395817995071411,-1.316650629043579
1772884877174649300,2.3976494140625,6.493522644042969,1.571486234664917,-0.21954147517681122
1772884877191264800,2.4142646484375,11.575878143310547,2.0685951709747314,1.3244273662567139
1772884877207875000,2.430875,17.12363624572754,3.222533941268921,2.7361927032470703
1772884877224459000,2.447458984375,19.68216323852539,4.270590305328369,2.571686029434204
1772884877241076000,2.464075927734375,18.53121566772461,5.983851432800293,-0.13040883839130402
1772884877257701400,2.480701416015625,13.49193000793457,8.822935104370117,-2.314457654953003
1772884877274274600,2.497274658203125,11.169097900390625,11.279766082763672,-2.0967109203338623
1772884877290908000,2.513907958984375,12.704691886901855,11.100902557373047,-0.45643091201782227
1772884877307511300,2.53051123046875,14.258830070495605,9.966106414794922,0.5066801905632019
1772884877324107800,2.547107666015625,14.396417617797852,8.97368335723877,0.373878538608551
1772884877340728800,2.563728759765625,13.924432754516602,6.887141704559326,-0.26500511169433594
1772884877357332500,2.58033251953125,12.689138412475586,4.7234320640563965,-0.06819544732570648
1772884877373906200,2.59690625,10.012167930603027,3.2727832794189453,0.5958128571510315
1772884877390534400,2.613534423828125,7.1718878746032715,2.5776681900024414,1.0755738019943237
1772884877407139300,2.630139404296875,5.676373481750488,1.9543378353118896,1.0510473251342773
1772884877423748900,2.646748779296875,5.617151260375977,2.0410776138305664,0.25304099917411804
1772884877440355000,2.66335498046875,6.635895252227783,2.242074728012085,-0.6933203339576721
1772884877456965400,2.67996533203125,6.86261510848999,2.101496458053589,-0.7674978375434875
1772884877473568300,2.696568359375,5.975476264953613,2.337787628173828,-0.4450650215148926
1772884877490177300,2.71317724609375,4.11924409866333,2.899502754211426,-0.1579262912273407
1772884877506796800,2.729796875,2.4287149906158447,3.084348440170288,0.13519448041915894
1772884877523387400,2.746387451171875,1.2323036193847656,3.184248685836792,0.4055834412574768
1772884877539993600,2.76299365234375,0.5198407173156738,3.363710403442383,0.31046873331069946
1772884877556608000,2.77960791015625,0.5904290080070496,3.7645082473754883,0.5617151260375977
1772884877573230600,2.796230712890625,1.4524433612823486,4.18564510345459,1.1102696657180786
1772884877589821400,2.812821533203125,3.3068809509277344,4.957330226898193,2.2821545600891113
1772884877606432800,2.829432861328125,6.294320106506348,5.703890800476074,3.2608189582824707
1772884877623033900,2.846033935546875,10.37228775024414,6.282355785369873,2.8833513259887695
1772884877639650300,2.862650390625,16.318452835083008,6.5042901039123535,1.7850457429885864
1772884877656256300,2.87925634765625,21.390039443969727,6.730412006378174,0.10289137065410614
1772884877672855800,2.895855712890625,22.459033966064453,8.11406135559082,-1.4997016191482544
1772884877689463600,2.912463623046875,18.658035278320312,10.047462463378906,-1.2538390159606934
1772884877706078700,2.92907861328125,15.007783889770508,10.420742988586426,-0.7998009920120239
1772884877722685700,2.945685791015625,16.22752571105957,9.45763111114502,-1.4021940231323242
1772884877739291000,2.962290771484375,21.27099609375,7.197012424468994,-2.1026928424835205
1772884877755898000,2.978898193359375,23.556739807128906,4.935794830322266,-2.2995026111602783
1772884877772518700,2.9955185546875,19.411174774169922,4.438685894012451,-2.5764718055725098
1772884877789112000,3.012112060546875,13.341780662536621,4.3178486824035645,-1.6917256116867065
1772884877805719600,3.028719482421875,7.841279983520508,4.456632137298584,-0.14835500717163086
1772884877822341600,3.045341552734375,3.981656789779663,4.3178486824035645,1.1497513055801392
1772884877838932000,3.061931884765625,3.2656047344207764,3.6125640869140625,1.6552350521087646
1772884877855540700,3.078540771484375,5.231906890869141,2.5405795574188232,1.3399807214736938
1772884877872146700,3.095146728515625,7.208378314971924,1.978864312171936,1.2095718383789062
1772884877888739300,3.1117392578125,7.090531826019287,1.5583257675170898,1.0301101207733154
1772884877905346800,3.128346923828125,5.170889854431152,1.5990036725997925,1.0701899528503418
1772884877921958000,3.1449580078125,3.281157970428467,1.5463616847991943,0.9367900490760803
1772884877938556400,3.161556396484375,1.7413766384124756,1.5158531665802002,0.30927231907844543
1772884877955171600,3.178171630859375,0.8249256014823914,1.3645070791244507,-0.5952146053314209
1772884877978007300,3.20100732421875,1.069591760635376,1.0767701864242554,-1.301695466041565
1772884877994602800,3.217602783203125,1.0199406147003174,1.1874382495880127,-1.098903775215149
1772884878011217700,3.2342177734375,1.0235298871994019,1.552941918373108,-0.8374879360198975
1772884878027824400,3.250824462890625,1.4051851034164429,2.1092731952667236,-0.44446679949760437
1772884878044418600,3.26741845703125,3.226123094558716,2.7110681533813477,0.5150550603866577
1772884878061038300,3.284038330078125,6.696314334869385,3.542573928833008,1.4123635292053223
1772884878077645000,3.30064501953125,10.580463409423828,4.111467361450195,1.1042876243591309
1772884878094268200,3.31726806640625,14.506486892700195,4.560719966888428,0.29371899366378784
1772884878110872600,3.33387255859375,15.40618896484375,5.667400360107422,-0.11665010452270508
1772884878127479300,3.350479248046875,12.942179679870605,7.930412292480469,-0.29730820655822754
1772884878144066000,3.367066162109375,10.005587577819824,9.250054359436035,0.20997019112110138
1772884878160675600,3.383675537109375,7.908278942108154,9.34277629852295,-0.12083754688501358
1772884878177300000,3.400300048828125,7.540980339050293,9.413962364196777,-0.23988047242164612
1772884878193908500,3.416908447265625,6.775277137756348,9.57188892364502,-0.44027936458587646
1772884878210514400,3.433514404296875,7.988438606262207,9.9469633102417,0.11665010452270508
1772884878227121000,3.450120849609375,10.918449401855469,9.884750366210938,-0.10887342691421509
1772884878243727400,3.466727294921875,13.055240631103516,9.379266738891602,-0.3595215976238251
1772884878260345900,3.483345947265625,12.795021057128906,8.060821533203125,0.4630111753940582
1772884878276926000,3.499926025390625,10.25922679901123,6.729215621948242,0.97926265001297
1772884878293534200,3.5165341796875,7.466204643249512,5.088337421417236,0.7561319470405579
1772884878310141400,3.533141357421875,5.401198863983154,3.8147575855255127,0.2273181527853012
1772884878326748200,3.549748046875,5.431707382202148,3.434896945953369,-0.4043870270252228
1772884878343355000,3.56635498046875,7.705487251281738,2.7284159660339355,-0.714257538318634
1772884878359948500,3.582948486328125,7.124629497528076,3.169891834259033,-0.3122633695602417
1772884878376569000,3.599569091796875,5.091926574707031,3.7154552936553955,-0.1866401731967926
1772884878393175800,3.61617578125,3.649054527282715,3.955335855484009,-0.41096729040145874
1772884878409782800,3.63278271484375,3.414557933807373,3.803989887237549,-0.763310432434082
1772884878426389000,3.649388916015625,4.153341770172119,3.3690943717956543,-0.6957131624221802
1772884878442996000,3.665995849609375,4.561318397521973,3.1692936420440674,-0.4468596279621124
1772884878459596500,3.682596435546875,4.329812526702881,3.1932218074798584,-0.15912270545959473
1772884878476210200,3.699210205078125,4.070191383361816,3.238685369491577,-0.04247260093688965
1772884878492827400,3.715827392578125,3.5778679847717285,3.3756744861602783,-0.24107688665390015
1772884878509422300,3.73242236328125,4.423730850219727,3.6424741744995117,-0.19800607860088348
1772884878526031000,3.749031005859375,7.703692436218262,4.299902439117432,-0.09032905846834183
1772884878542637300,3.76563720703125,12.236894607543945,5.321039199829102,-0.2476571500301361
1772884878559224800,3.782224853515625,14.550156593322754,6.378068923950195,-0.32721850275993347
1772884878575851000,3.79885107421875,11.236695289611816,8.273183822631836,-1.0929217338562012
1772884878592457700,3.815457763671875,6.579065799713135,9.698708534240723,-1.5852450132369995
1772884878609065000,3.83206494140625,3.379862070083618,10.435099601745605,-2.871387243270874
1772884878625672000,3.848671875,5.292923450469971,10.27059268951416,-3.85483717918396
1772884878642292000,3.8652919921875,9.893125534057617,9.260223388671875,-2.6709883213043213
1772884878658899200,3.881899169921875,15.040684700012207,8.332406997680664,-0.6813562512397766
1772884878675506000,3.898505859375,20.1224422454834,8.005785942077637,0.10707881301641464
1772884878692124400,3.91512451171875,19.32204246520996,8.094919204711914,0.2709871530532837
1772884878708703000,3.931702880859375,13.692329406738281,8.090731620788574,0.9906286001205444
1772884878725325600,3.94832568359375,8.539983749389648,7.183851718902588,1.9387845993041992
1772884878741930500,3.964930419921875,5.4628143310546875,5.979663848876953,1.9746768474578857
1772884878758531800,3.98153173828125,5.336592674255371,4.6785664558410645,1.1162517070770264
1772884878775146800,3.998146728515625,8.59621524810791,3.253042459487915,-0.380458801984787
1772884878791740700,4.01474072265625,9.803394317626953,2.3192434310913086,-1.6271194219589233
1772884878808361000,4.03136083984375,8.063812255859375,2.4436700344085693,-1.7012969255447388
1772884878824959200,4.047959228515625,4.826921463012695,2.812762975692749,-1.088136076927185
1772884878841579000,4.0645791015625,2.0159530639648438,2.888735055923462,-0.7046862840652466
1772884878858181600,4.081181640625,0.4749752879142761,2.695514678955078,-0.6843472719192505
1772884878874772700,4.097772705078125,1.2161520719528198,2.311466693878174,-0.900897741317749
1772884878891364400,4.1143642578125,2.7864420413970947,1.6504493951797485,-0.9481559991836548
1772884878907987000,4.130987060546875,3.531806230545044,1.5224334001541138,-0.6873382925987244
1772884878924595200,4.14759521484375,3.497708559036255,1.389033555984497,-0.22193430364131927
1772884878941202200,4.1642021484375,4.2622151374816895,1.3280165195465088,0.16450655460357666
1772884878957809000,4.180808837890625,6.516852378845215,1.5343974828720093,0.11605189740657806
1772884878974413800,4.197413818359375,10.250852584838867,2.36291241645813,0.137587308883667
1772884878991012600,4.2140126953125,13.326227188110352,2.871387243270874,0.29431718587875366
1772884879007628000,4.2306279296875,13.231711387634277,3.8153557777404785,0.41874396800994873
1772884879024236000,4.247236083984375,10.234700202941895,5.209773063659668,0.04546362906694412
1772884879040843300,4.26384326171875,8.028517723083496,6.681358814239502,0.34277185797691345
1772884879057450000,4.280449951171875,8.944969177246094,6.563512325286865,0.4450650215148926
1772884879074056700,4.297056640625,11.944372177124023,5.600401401519775,0.3236292600631714
1772884879090662000,4.313661865234375,15.900904655456543,5.594419479370117,1.1778669357299805
1772884879107284500,4.330284423828125,16.322040557861328,5.894120216369629,1.1826525926589966
1772884879123889700,4.3468896484375,13.359726905822754,5.807978630065918,-0.47258245944976807
1772884879140499500,4.36349951171875,10.826326370239258,5.289334297180176,-0.6251249313354492
1772884879157105000,4.38010498046875,8.94975471496582,5.389832973480225,0.641276478767395
1772884879173711400,4.39671142578125,7.2089762687683105,5.777470111846924,1.6636099815368652
1772884879190318000,4.413318115234375,6.445067882537842,5.651846885681152,1.866999864578247
1772884879206909000,4.429908935546875,6.8997039794921875,5.80917501449585,0.8614161610603333
1772884879223532000,4.446531982421875,7.51286506652832,5.768496990203857,-0.4007977843284607
1772884879240121000,4.46312109375,8.051848411560059,5.922834396362305,-2.0925233364105225
1772884879256748000,4.479748046875,8.204988479614258,6.283552169799805,-2.050050735473633
1772884879273353200,4.496353271484375,7.433901786804199,6.738188743591309,-0.5940182209014893
1772884879289943800,4.51294384765625,6.722036838531494,6.8141608238220215,1.1120643615722656
1772884879306567000,4.52956689453125,4.945964336395264,6.7208404541015625,2.366501569747925
1772884879323149000,4.546149169921875,3.263211965560913,6.254838466644287,2.386242389678955
1772884879339766300,4.562766357421875,3.779463291168213,5.401797294616699,2.283949136734009
1772884879356374800,4.579374755859375,7.1234331130981445,4.4961137771606445,2.630310297012329
1772884879372980200,4.595980224609375,11.477771759033203,3.2416765689849854,3.1244282722473145
1772884879389587000,4.6125869140625,15.993626594543457,1.4249259233474731,2.926422119140625
1772884879406182100,4.62918212890625,20.54896354675293,-0.28175488114356995,2.0679969787597656
1772884879422800600,4.645800537109375,20.9102783203125,-0.4785645306110382,1.8239290714263916
1772884879439420700,4.662420654296875,16.053447723388672,2.1720848083496094,1.7748762369155884
1772884879456030700,4.67903076171875,9.343374252319336,5.903093338012695,1.7515461444854736
1772884879472635100,4.69563525390625,4.908875465393066,7.8382887840271,3.260220766067505
1772884879524514600,4.7475146484375,29.449665069580078,-2.0297117233276367,3.5754752159118652
1772884879541136000,4.764135986328125,25.46082878112793,-1.3698909282684326,-2.289931297302246
1772884879557748500,4.78074853515625,15.081960678100586,1.4404792785644531,-4.463212490081787
1772884879574344400,4.797344482421875,8.234899520874023,3.3684961795806885,-4.677968502044678
1772884879590956800,4.813956787109375,5.13320255279541,3.696312665939331,-3.8117663860321045
1772884879607563500,4.8305634765625,5.084748268127441,3.7082769870758057,-2.410170555114746
1772884879624142000,4.84714208984375,5.649454116821289,3.566502094268799,-1.3334003686904907
1772884879640777500,4.863777587890625,4.3998026847839355,3.9672999382019043,-1.0360921621322632
1772884879657382400,4.88038232421875,3.297907829284668,4.106681823730469,-0.857228696346283
1772884879673993700,4.89699365234375,3.242274761199951,3.7609190940856934,-0.7728816866874695
1772884879690598000,4.913597900390625,3.122035264968872,3.305086374282837,-0.7328019142150879
1772884879707197200,4.930197265625,2.8899314403533936,2.736790895462036,-0.6161518096923828
1772884879723812000,4.94681201171875,3.294916868209839,2.196611166000366,-0.18723836541175842
1772884879740402000,4.96340185546875,2.3778674602508545,1.710868239402771,0.0729810893535614
1772884879757025000,4.98002490234375,1.2711870670318604,1.6773686408996582,-0.2273181527853012
1772884879773638000,4.996637939453125,-0.35413774847984314,1.532004714012146,-0.3577269911766052
1772884879790217000,5.013217041015625,0.3320041298866272,1.9166508913040161,0.3200400173664093
1772884879806846200,5.02984619140625,2.9479575157165527,2.0931215286254883,2.1098713874816895
1772884879823435500,5.046435546875,6.915855407714844,2.5782663822174072,3.6502509117126465
1772884879840023300,5.063023193359375,12.738789558410645,2.160120725631714,4.556532382965088
1772884879856653000,5.079653076171875,19.938793182373047,0.7178468108177185,3.730410575866699
1772884879873262000,5.096261962890625,23.324039459228516,-0.7663014531135559,1.2849457263946533
1772884879889864200,5.1128642578125,19.675582885742188,1.4350954294204712,-0.050847481936216354
1772884879906473200,5.12947314453125,10.126425743103027,5.420939922332764,0.8219345808029175
1772884879923083800,5.146083740234375,0.9080761671066284,9.358329772949219,1.6199408769607544
1772884879939684000,5.16268408203125,2.3802602291107178,7.472784996032715,1.7940187454223633
1772884879956302000,5.179302001953125,14.82114315032959,3.0352954864501953,2.059622049331665
1772884879972916500,5.19591650390625,27.016164779663086,-1.4261223077774048,1.9812572002410889
1772884879989509400,5.21250927734375,25.50689125061035,-1.4063814878463745,-1.2478569746017456
1772884880006128400,5.22912841796875,16.01276969909668,1.3112667798995972,-1.451246976852417
1772884880022734800,5.24573486328125,9.336793899536133,2.2959132194519043,-0.2392822653055191
1772884880039325000,5.262324951171875,6.711269378662109,2.857628345489502,0.2147558331489563
1772884880055949000,5.278948974609375,4.78385066986084,4.034298896789551,0.08135596662759781
1772884880072552200,5.29555224609375,3.6406795978546143,4.346562385559082,-0.43609192967414856
1772884880089166000,5.312166015625,4.015156269073486,4.505684852600098,-1.23589289188385
1772884880105769500,5.32876953125,4.209573268890381,4.847858905792236,-1.9280169010162354
1772884880122376200,5.345376220703125,3.7052857875823975,4.934598445892334,-2.0344974994659424
1772884880138968600,5.361968505859375,2.513062000274658,4.913063049316406,-2.1571295261383057
1772884880155588400,5.37858837890625,1.4213366508483887,4.555335998535156,-2.593221426010132
1772884880172195600,5.395195556640625,0.9391828775405884,4.089334011077881,-3.0340991020202637
1772884880188804900,5.411804931640625,2.063809633255005,3.321835994720459,-3.060420274734497
1772884880205410800,5.428410888671875,3.329014539718628,2.8073792457580566,-2.799004316329956
1772884880222017300,5.445017333984375,5.0327043533325195,2.132603168487549,-1.7276179790496826
1772884880238607000,5.461607177734375,7.631907939910889,2.132004976272583,0.6346961855888367
1772884880255232000,5.47823193359375,13.035499572753906,1.466800332069397,2.531606435775757
1772884880271833600,5.49483349609375,20.47418785095215,0.0029910283628851175,2.3258235454559326
1772884880288448800,5.51144873046875,24.672992706298828,-1.4500504732131958,0.6364908218383789
1772884880305034500,5.528034423828125,21.799213409423828,-0.6269195079803467,-0.259621262550354
1772884880321644800,5.544644775390625,14.165510177612305,2.1062822341918945,0.07118647545576096
1772884880338262500,5.561262451171875,6.282954216003418,4.528416633605957,2.4915266036987305
1772884880354856000,5.57785595703125,8.910273551940918,3.7782669067382812,4.06839656829834
1772884880371467800,5.5944677734375,20.104496002197266,0.753140926361084,4.303491592407227
1772884880388072200,5.611072265625,26.115266799926758,-0.3678964674472809,1.8987047672271729
1772884880404679000,5.627678955078125,22.13779640197754,2.0745773315429688,-0.7154539823532104
1772884880421302500,5.644302490234375,15.940984725952148,4.198805332183838,-1.2143574953079224
1772884880437893000,5.66089306640625,11.4921293258667,4.633700847625732,-1.2149556875228882
1772884880454496800,5.677496826171875,8.986245155334473,3.792623996734619,-1.1593226194381714
1772884880471116300,5.6941162109375,7.325626373291016,3.4504501819610596,-0.6981059908866882
1772884880487704000,5.7107041015625,5.8953166007995605,3.9565322399139404,-0.7100701332092285
1772884880504333600,5.72733349609375,5.536991596221924,4.521238327026367,-1.1820544004440308
1772884880520940800,5.74394091796875,5.743372440338135,4.5098724365234375,-1.810170292854309
1772884880537530600,5.760530517578125,5.1529436111450195,4.67078971862793,-2.383849620819092
1772884880554154800,5.77715478515625,3.4809587001800537,4.701896667480469,-2.575275421142578
1772884880570756600,5.793756591796875,1.856830358505249,4.610969066619873,-2.4089741706848145
1772884880587376000,5.810376220703125,0.8237292170524597,4.454239368438721,-2.1128623485565186
1772884880603975200,5.82697509765625,0.23210379481315613,4.177868366241455,-1.8436698913574219
1772884880620581600,5.84358154296875,0.12023933976888657,3.806980848312378,-1.7306089401245117
1772884880637172500,5.86017236328125,0.646660327911377,3.3379876613616943,-1.6223337650299072
1772884880653795800,5.8767958984375,1.4297115802764893,2.9150562286376953,-0.9696913957595825
1772884880670399700,5.893399658203125,2.702693223953247,2.7762725353240967,0.1698904037475586
1772884880687011300,5.91001123046875,4.205385684967041,2.9964120388031006,1.5547364950180054
1772884880703616000,5.926615966796875,7.64865779876709,3.0891339778900146,2.985046148300171
1772884880720222700,5.94322265625,14.243276596069336,2.1230318546295166,4.031308174133301
1772884880736841200,5.95984130859375,20.748764038085938,0.3314059376716614,3.541377544403076
1772884880753436700,5.976436767578125,23.496322631835938,-1.0534402132034302,2.654836654663086
1772884880770037800,5.993037841796875,19.298114776611328,0.43549370765686035,2.2923240661621094
1772884880786659000,6.0096591796875,12.617952346801758,3.751347780227661,2.335394859313965
1772884880803240200,6.026240234375,8.329415321350098,6.116054534912109,2.420340061187744
1772884880819840500,6.042840576171875,8.731410026550293,5.078167915344238,1.6498512029647827
1772884880836449800,6.05944970703125,15.591033935546875,3.0795626640319824,0.6107679605484009
1772884880853064200,6.076064208984375,20.896520614624023,1.9914265871047974,0.22851456701755524
1772884880869671000,6.0926708984375,24.067607879638672,2.688336133956909,0.5748756527900696
1772884880886277400,6.10927734375,23.129024505615234,2.9940192699432373,0.582054078578949
1772884880902884000,6.125884033203125,17.274982452392578,3.6670007705688477,0.01734796352684498
1772884880919508200,6.14250830078125,12.452847480773926,3.714258909225464,-0.3852444589138031
1772884880936109600,6.159109619140625,10.383055686950684,3.4307093620300293,-0.07896314561367035
1772884880952718600,6.175718505859375,7.8658061027526855,3.8973097801208496,0.43609192967414856
1772884880969320000,6.19231982421875,4.493122577667236,4.3998026847839355,0.6305087804794312
1772884880985933800,6.208933837890625,2.8241288661956787,4.414159774780273,0.778863787651062
1772884881002543600,6.225543701171875,3.2751760482788086,4.0558342933654785,0.711864709854126
1772884881019146000,6.24214599609375,4.249652862548828,3.43908429145813,0.14656038582324982
1772884881035738000,6.258738037109375,4.527220249176025,2.964108943939209,-0.5084748268127441
1772884881052360400,6.2753603515625,3.105883836746216,2.7906293869018555,-1.0809576511383057
1772884881068981200,6.291981201171875,1.444068431854248,2.7421748638153076,-1.4446666240692139
1772884881085577500,6.308577392578125,0.2356930375099182,2.7696921825408936,-1.7485551834106445
1772884881102184000,6.325183837890625,-0.22372891008853912,2.671586513519287,-2.0099709033966064
1772884881118787600,6.34178759765625,-0.2566302418708801,2.5387847423553467,-1.6187444925308228
1772884881135389400,6.358389404296875,1.337587833404541,2.4765713214874268,-0.1453639715909958
1772884881152001300,6.375001220703125,4.522434711456299,2.71645188331604,1.7276179790496826
1772884881168602400,6.391602294921875,8.26660442352295,2.48315167427063,3.603590965270996
1772884881185202400,6.408202392578125,13.811372756958008,1.7060825824737549,4.107280254364014
1772884881201821700,6.42482177734375,18.426528930664062,0.9984052777290344,3.128615617752075
1772884881218428000,6.441427978515625,19.136001586914062,1.7748762369155884,0.39960137009620667
1772884881235044400,6.45804443359375,14.35035514831543,5.030311584472656,-2.007578134536743
1772884881251642600,6.474642578125,7.080960273742676,9.81655502319336,-2.9455647468566895
1772884881268249900,6.491249755859375,4.386044025421143,12.004791259765625,-2.5740790367126465
1772884881284837400,6.50783740234375,7.759923934936523,12.212966918945312,-1.9124635457992554
1772884881301448400,6.524448486328125,11.855239868164062,10.588240623474121,-0.8763712644577026
1772884881318055700,6.5410556640625,15.446866989135742,9.053244590759277,0.25423741340637207
1772884881334650000,6.557650146484375,16.82872200012207,7.420143127441406,0.43489551544189453
1772884881351265300,6.574265380859375,14.850455284118652,5.447260856628418,0.3074777126312256
1772884881367880200,6.590880126953125,11.72842025756836,3.7399818897247314,0.19740787148475647
1772884881384483300,6.6074833984375,8.958727836608887,2.6392834186553955,0.03768695518374443
1772884881401089800,6.62408984375,7.384250640869141,1.8239290714263916,-0.09810572862625122
1772884881417711400,6.64071142578125,6.6484575271606445,1.5098711252212524,-0.10588239878416061
1772884881434334500,6.65733447265625,5.851049423217773,1.5086746215820312,0.13280165195465088
1772884881450924000,6.673924072265625,4.700101852416992,1.4374881982803345,0.31106695532798767
1772884881467531300,6.69053125,3.899104595184326,1.6983058452606201,0.719641387462616
1772884881484137700,6.7071376953125,3.2105698585510254,1.8598214387893677,0.5234299302101135
1772884881500744400,6.723744384765625,3.542573928833008,1.8340985774993896,0.004785645287483931
1772884881517351700,6.7403515625,4.11206579208374,1.5074782371520996,-0.2063809484243393
1772884881533941800,6.756941650390625,3.177668571472168,1.578664779663086,-0.20518454909324646
1772884881550565600,6.773565673828125,1.9519450664520264,2.1296122074127197,-0.18963119387626648
1772884881567171600,6.790171630859375,1.0007981061935425,2.6632115840911865,0.054436713457107544
1772884881583779300,6.806779296875,0.7872386574745178,3.659224033355713,0.27337998151779175
1772884881600386000,6.823385986328125,2.26959228515625,4.759922504425049,0.4546363055706024
1772884881616992300,6.8399921875,7.426723480224609,5.267798900604248,0.2189432680606842
1772884881633586400,6.85658642578125,15.421143531799316,5.245067119598389,0.6664010882377625
1772884881650207000,6.87320703125,21.14716911315918,6.440282344818115,0.1453639715909958
1772884881666836200,6.889836181640625,19.75035858154297,9.081958770751953,-1.688136339187622
1772884881683420700,6.906420654296875,13.142578125,11.460424423217773,-3.4743785858154297
1772884881700026600,6.923026611328125,8.532207489013672,13.083953857421875,-5.02432918548584
1772884881716633600,6.939633544921875,10.069596290588379,12.246466636657715,-6.545566558837891
1772884881733225700,6.956225830078125,13.433306694030762,10.76112174987793,-6.4941205978393555
1772884881749847300,6.972847412109375,18.03410530090332,9.77408218383789,-3.792025566101074
1772884881766433300,6.989433349609375,19.97648048400879,7.776673793792725,-1.5649060010910034
1772884881783048400,7.00604833984375,17.62433433532715,6.884748935699463,-0.893121063709259
1772884881799654400,7.022654296875,12.760923385620117,6.733402729034424,0.6394818425178528
1772884881816260900,7.0392607421875,7.16949462890625,6.547360897064209,1.9561325311660767
1772884881832866300,7.0558662109375,4.442275047302246,6.168696880340576,3.0975089073181152
1772884881849474800,7.072474853515625,6.150152206420898,5.313262462615967,3.4642090797424316
1772884881866081500,7.08908154296875,8.428717613220215,4.289732933044434,2.8797619342803955
1772884881882688500,7.1056884765625,8.695517539978027,3.6047873497009277,2.169692039489746
1772884881899298300,7.12229833984375,7.124629497528076,3.2470602989196777,1.659422516822815
1772884881915916000,7.138916015625,5.154139995574951,2.8552355766296387,1.3854442834854126
1772884881932506600,7.155506591796875,3.122633457183838,2.63449764251709,1.103689432144165
1772884881949129200,7.172129150390625,1.4362918138504028,2.5357937812805176,0.4289134442806244
1772884881965736000,7.18873583984375,1.4793626070022583,1.973480463027954,-0.4462614357471466
1772884881982343700,7.20534375,1.9980069398880005,1.5128620862960815,-0.7680960893630981
1772884881998950100,7.2219501953125,2.7828526496887207,1.3609179258346558,-0.486939400434494
1772884882015556900,7.238556884765625,3.555136203765869,1.399801254272461,-0.06520441919565201
1772884882032147000,7.25514697265625,4.6372904777526855,1.3818551301956177,0
1772884882048770600,7.2717705078125,5.848058700561523,1.6199408769607544,0.02392822690308094
1772884882065356800,7.288356689453125,7.4500532150268555,2.2342982292175293,0.12921242415905
1772884882081988600,7.304988525390625,8.885746955871582,2.9587252140045166,0.040677983313798904
1772884882098591200,7.32159130859375,9.833304405212402,4.2693939208984375,0.22193430364131927
1772884882115198000,7.338197998046875,10.9028959274292,6.437291145324707,1.0259226560592651
1772884882131788000,7.3547880859375,11.501102447509766,8.063214302062988,1.350150227546692
1772884882148412000,7.371411865234375,12.362518310546875,8.182256698608398,0.21236300468444824
1772884882165023500,7.3880234375,12.487543106079102,8.485547065734863,-0.981655478477478
1772884882181620500,7.404620361328125,11.12602710723877,9.372686386108398,-1.8137595653533936
1772884882198232800,7.42123291015625,8.453842163085938,10.284950256347656,-1.672582983970642
1772884882214822400,7.437822509765625,8.6907320022583,10.777273178100586,-1.2975081205368042
1772884882231428900,7.454428955078125,10.86580753326416,10.494919776916504,0.44386860728263855
1772884882248053200,7.47105322265625,10.98724365234375,9.041878700256348,0.9678967595100403
1772884882264644900,7.487644775390625,9.004191398620605,7.670791149139404,0.3756731450557709
1772884882281250300,7.504250244140625,6.847062110900879,6.567101955413818,0.26500511169433594
1772884882297859600,7.520859619140625,5.1152567863464355,5.933003902435303,0.6382854580879211
1772884882314466600,7.537466552734375,3.0352954864501953,5.805585861206055,0.5682953596115112
1772884882331063300,7.554063232421875,1.256830096244812,5.416153907775879,-0.357128769159317
1772884882347680000,7.570679931640625,0.9092726111412048,4.971088886260986,-1.3920245170593262
1772884882364267300,7.587267333984375,2.1068804264068604,4.560121536254883,-1.6983058452606201
1772884882380896500,7.603896484375,4.286741733551025,3.8662030696868896,-1.0887342691421509
1772884882397517800,7.620517822265625,5.537590026855469,3.452244758605957,0.2877369225025177
1772884882414120700,7.63712060546875,5.145166873931885,3.4983067512512207,1.1324033737182617
1772884882430711000,7.6537109375,4.247260093688965,3.665804386138916,1.1048858165740967
1772884882447316700,7.670316650390625,3.7082769870758057,3.8703906536102295,0.5497509837150574
1772884882463938000,7.68693798828125,3.7543387413024902,4.517050743103027,-0.09571290761232376
1772884882480552400,7.703552490234375,5.9886369705200195,5.321039199829102,-0.035892341285943985
1772884882497155300,7.7201552734375,9.300901412963867,6.26141881942749,-0.03290131315588951
1772884882513744400,7.736744384765625,11.504691123962402,6.973283290863037,-0.5377869009971619
1772884882530350800,7.753350830078125,10.660623550415039,8.112865447998047,-1.1653046607971191
1772884882546959000,7.769958984375,8.534600257873535,9.021539688110352,-0.9553344249725342
1772884882563567000,7.786567138671875,6.200999736785889,9.365508079528809,-0.4468596279621124
1772884882580193000,7.803193115234375,4.522434711456299,9.511469841003418,-0.6711867451667786
1772884882596796400,7.81979638671875,5.532206058502197,8.879166603088379,-1.0211371183395386
1772884882613403100,7.836403076171875,7.9250288009643555,8.547760963439941,-1.1563315391540527
1772884882629995300,7.852995361328125,9.137591361999512,8.595617294311523,-0.7752745151519775
1772884882646617600,7.86961767578125,9.32423210144043,8.558527946472168,-0.09272187948226929
1772884882663227400,7.886227294921875,8.947361946105957,8.26241683959961,-0.06400800496339798
1772884882679827200,7.9028271484375,8.804988861083984,8.006982803344727,-0.605384111404419
1772884882696437800,7.919437744140625,8.785248756408691,7.99382209777832,-0.7920243144035339
1772884882713044500,7.93604443359375,8.233702659606934,7.875975608825684,-0.5174478888511658
1772884882729634600,7.952634521484375,7.167700290679932,7.755138397216797,-0.03409772366285324
1772884882746258400,7.969258544921875,6.27996301651001,7.512266635894775,0.39960137009620667
1772884882762844200,7.98584423828125,6.4941205978393555,7.051050186157227,0.31405797600746155
1772884882779461600,8.002461669921875,7.240681171417236,6.500102519989014,0.22432711720466614
1772884882796061700,8.019061767578124,7.392625331878662,6.193222999572754,-0.0849452018737793
1772884882812674800,8.0356748046875,7.318448066711426,6.017350673675537,-0.31046873331069946
1772884882829260800,8.0522607421875,7.026523590087891,6.008975982666016,-0.3188436031341553
1772884882845887000,8.068886962890625,6.796214580535889,6.138786315917969,-0.05802594870328903
1772884882862488000,8.085488037109375,6.719046115875244,6.226722717285156,0.16749759018421173
1772884882879102000,8.10210205078125,6.773482799530029,6.13699197769165,0.12861421704292297
1772884882895723000,8.118722900390624,6.962515830993652,5.938985824584961,-0.01734796352684498
1772884882912326400,8.135326416015625,6.951149940490723,5.776273727416992,-0.01375873014330864
1772884882928916500,8.15191650390625,6.290132522583008,5.779862880706787,-0.16809579730033875
1772884882945539800,8.168539794921875,5.4143595695495605,5.695516109466553,-0.3978067636489868
1772884882962144000,8.18514404296875,4.826921463012695,5.589633464813232,-0.49591249227523804
1772884882978757400,8.20175732421875,4.620540618896484,5.433502197265625,-0.3762713670730591
1772884882995361000,8.218361083984375,4.515854358673096,5.178068161010742,-0.28654050827026367
1772884883011967200,8.23496728515625,4.355535507202148,4.812564373016357,-0.26440688967704773
1772884883028557600,8.2515576171875,4.045066833496094,4.46560525894165,-0.39421752095222473
1772884883045181200,8.26818115234375,3.3074791431427,3.9565322399139404,-0.542572557926178
1772884883061784300,8.284784423828125,2.5148565769195557,3.9930226802825928,-0.2027917206287384
1772884883078382300,8.30138232421875,2.0141584873199463,4.24785852432251,0.11306086927652359
1772884883095001600,8.318001708984376,1.9800606966018677,4.548755645751953,0.14895321428775787
1772884883111608600,8.334608642578125,2.7080769538879395,5.002195835113525,0.08075776696205139
1772884883128199000,8.351198974609375,4.448855400085449,5.797211170196533,-0.6598208546638489
1772884883144826600,8.36782666015625,8.327621459960938,6.354140758514404,-1.5906288623809814
1772884883161429800,8.3844296875,12.689138412475586,7.442874908447266,-2.5256242752075195
1772884883178039300,8.401039306640625,15.51506233215332,8.973084449768066,-2.7457640171051025
1772884883194643000,8.417642822265625,16.80299949645996,9.296713829040527,-3.1615169048309326
1772884883211249400,8.43424951171875,18.776479721069336,8.922237396240234,-3.9457645416259766
1772884883227839200,8.450839111328126,21.751955032348633,8.428717613220215,-4.047459602355957
1772884883244446700,8.46744677734375,22.063020706176758,8.873184204101562,-3.5150563716888428
1772884883261056300,8.48405615234375,19.952550888061523,9.155537605285645,-3.463012456893921
1772884883277663200,8.500663330078124,18.578474044799805,7.690532207489014,-3.4277184009552
1772884883294270000,8.51727001953125,16.218551635742188,5.087141036987305,-3.0269205570220947
1772884883310877200,8.533877197265625,11.4921293258667,2.968296527862549,-2.379662036895752
1772884883327491800,8.550491943359376,8.035696983337402,2.4029922485351562,0.2231307178735733
1772884883344090600,8.567090576171875,6.025127410888672,2.6075785160064697,2.923431158065796
1772884883360699100,8.58369921875,5.0703911781311035,3.321835994720459,3.8524444103240967
1772884883377293300,8.600293212890625,5.864808082580566,3.7405800819396973,2.8564319610595703
1772884883393930000,8.616929931640625,6.644270420074463,3.0957143306732178,0.8769695162773132
1772884883410531300,8.63353125,5.690730571746826,2.5262224674224854,-1.0109676122665405
1772884883427122000,8.650121826171874,3.889533281326294,2.1020946502685547,-1.817348837852478
1772884883443745300,8.666745361328125,3.2955150604248047,2.5633113384246826,-0.5431707501411438
1772884883460356000,8.683356201171875,3.7507495880126953,2.96111798286438,0.016749758273363113
1772884883476939000,8.69993896484375,4.43031120300293,2.526820659637451,0.16331014037132263
1772884883493565700,8.716565673828125,3.867997884750366,2.3401806354522705,0.05024927482008934
1772884883510173000,8.7331728515625,2.83669114112854,2.6368906497955322,0.45523449778556824
1772884883526763000,8.749762939453126,2.4717857837677,2.8253252506256104,0.9032905697822571
1772884883543386600,8.76638671875,2.258824586868286,2.9665019512176514,0.8721838593482971
1772884883559996200,8.78299609375,2.190629243850708,2.8929226398468018,0.4654040038585663
1772884883576597200,8.79959716796875,2.3641088008880615,2.973680257797241,0.17766708135604858
1772884883593207000,8.81620703125,3.403790235519409,2.973680257797241,0.38225340843200684
1772884883609813500,8.8328134765625,4.475774765014648,2.9515466690063477,0.37148571014404297
1772884883626403300,8.8494033203125,5.111667156219482,3.1334011554718018,0.039481572806835175
1772884883643027500,8.86602734375,5.3904314041137695,3.403790235519409,-0.47676992416381836
1772884883659626000,8.8826259765625,6.516852378845215,3.614956855773926,-0.23808585107326508
1772884883676233000,8.89923291015625,7.565506935119629,4.400400638580322,-0.07058826833963394
1772884883692848400,8.915848388671876,10.100104331970215,4.9190449714660645,-1.046859860420227
1772884883709454800,8.932454833984375,13.291531562805176,4.335794448852539,-2.7672994136810303
1772884883726050800,8.94905078125,15.814763069152832,3.0562326908111572,-3.2931220531463623
1772884883742651400,8.9656513671875,15.02453327178955,2.93001127243042,-2.337787628173828
1772884883759258000,8.982258056640624,12.586845397949219,4.11924409866333,-0.6125625967979431
1772884883775872000,8.9988720703125,9.279964447021484,6.502495765686035,-0.34695929288864136
1772884883792475400,9.015475341796876,3.731008768081665,10.246665000915527,-0.3116651475429535
1772884883809082000,9.03208203125,-1.3639088869094849,12.430115699768066,0.4217349886894226
1772884883825675500,9.048675537109375,-3.31465744972229,14.432310104370117,0.5718846321105957
1772884883842296000,9.065296142578125,-2.334796667098999,13.518251419067383,0.6885347366333008
1772884883858899700,9.081899658203126,3.434896945953369,9.373882293701172,-0.48873403668403625
1772884883875516000,9.098515869140625,11.576476097106934,5.813961029052734,-3.191427230834961
1772884883892115200,9.115115234375,17.65604019165039,4.548755645751953,-4.272983074188232
1772884883908740900,9.131740966796874,16.20778465270996,5.018347263336182,-3.3714871406555176
1772884883925343700,9.14834375,11.961122512817383,6.180062770843506,-1.828116536140442
1772884883941927400,9.164927490234374,12.644871711730957,5.313860893249512,-1.5080764293670654
1772884883958557000,9.181556884765625,12.768699645996094,3.4097721576690674,-1.9818553924560547
1772884883975159300,9.1981591796875,12.074183464050293,3.1202406883239746,-1.4446666240692139
1772884883991771100,9.214771240234375,11.033305168151855,3.218944549560547,-0.8350951075553894
1772884884008378400,9.23137841796875,10.528419494628906,3.5300116539001465,-0.3038884699344635
1772884884024990700,9.24799072265625,9.958329200744629,3.913461446762085,0.04127619042992592
1772884884041576400,9.264576416015625,9.373284339904785,3.9038901329040527,-0.1944168359041214
1772884884058198800,9.28119873046875,8.784649848937988,3.757927894592285,-0.6275177597999573
1772884884074802400,9.297802490234375,8.739784240722656,3.9433717727661133,-1.170688509941101
1772884884091414300,9.314414306640625,9.278169631958008,3.6981074810028076,-1.4673985242843628
1772884884108019700,9.331019775390626,10.115059852600098,3.266202926635742,-1.3603196144104004
1772884884124615700,9.34761572265625,9.88415241241455,3.2446675300598145,-0.8093722462654114
1772884884141221600,9.3642216796875,9.112466812133789,3.641875982284546,-0.6394818425178528
1772884884157839600,9.380839599609375,8.466404914855957,3.776472330093384,-0.9984052777290344
1772884884174446800,9.39744677734375,8.380263328552246,3.686143398284912,-1.2089736461639404
1772884884191053800,9.4140537109375,8.9312105178833,3.7292141914367676,-1.0348957777023315
1772884884207660000,9.430659912109375,9.10229778289795,3.900300979614258,-0.7094719409942627
1772884884224249300,9.447249267578124,9.422935485839844,4.1383867263793945,-0.6855437159538269
1772884884240860000,9.46385986328125,9.68375301361084,4.172484397888184,-1.007378339767456
1772884884257461200,9.480461181640624,9.143573760986328,4.405784606933594,-0.9978070259094238
1772884884274077200,9.4970771484375,8.332406997680664,4.73300313949585,-1.100698471069336
1772884884290682600,9.5136826171875,7.944769382476807,4.864608287811279,-0.7244270443916321
1772884884307287600,9.53028759765625,8.127222061157227,4.8568315505981445,-0.7256234884262085
1772884884323894000,9.54689404296875,8.567501068115234,4.509274482727051,-0.9601200819015503
1772884884340495400,9.563495361328124,8.58484935760498,4.384249210357666,-0.8608179688453674
1772884884357107500,9.580107421875,8.225327491760254,4.48414945602417,-0.6711867451667786
1772884884373727700,9.596727783203125,8.022536277770996,4.657031059265137,-0.4492524564266205
1772884884390339300,9.61333935546875,7.939385414123535,4.724030017852783,-0.5054838061332703
1772884884406942000,9.62994189453125,7.411767959594727,4.677968502044678,-0.8422735929489136
1772884884423548200,9.646548095703125,6.324828624725342,5.160121917724609,-1.0193424224853516
1772884884440150500,9.663150634765625,6.07896614074707,5.347360610961914,-0.7722834944725037
1772884884456762400,9.679762451171875,6.485147476196289,5.267798900604248,-1.0959128141403198
1772884884473365800,9.69636572265625,6.932007312774658,5.181657314300537,-1.074975609779358
1772884884489997600,9.71299755859375,7.987840175628662,4.983053207397461,-1.1497513055801392
