time,seconds_elapsed,z,y,x
1772883275767041500,0.17604150390625,9.4061861038208,2.888136863708496,0.5443671345710754
1772883275783643100,0.19264306640625,9.205188751220703,2.8492536544799805,0.3966103494167328
1772883275800264700,0.2092646484375,9.072985649108887,2.8977081775665283,0.1585244983434677
1772883275816891100,0.22589111328125,9.09691333770752,2.940180778503418,0.24526432156562805
1772883275833473000,0.24247314453125,9.33021354675293,3.0281169414520264,0.3397808074951172
1772883275850071800,0.25907177734375,9.41635513305664,3.071187973022461,0.45942193269729614
1772883275866670600,0.275670654296875,9.473783493041992,3.1232316493988037,0.5886343717575073
1772883275883271200,0.292271240234375,9.415757179260254,3.142374277114868,0.5318048596382141
1772883275899893800,0.308893798828125,9.516854286193848,3.090928554534912,0.5258227586746216
1772883275916483600,0.325483642578125,9.44327449798584,3.1483564376831055,0.4265206456184387
1772883275933107700,0.342107666015625,9.374481201171875,3.2614171504974365,0.4899304509162903
1772883275949697500,0.358697509765625,9.266803741455078,3.404388427734375,0.47198426723480225
1772883275966316300,0.37531640625,9.117252349853516,3.446262836456299,0.397208571434021
1772883275982903800,0.39190380859375,8.952746391296387,3.469592809677124,0.24526432156562805
1772883275999506400,0.40850634765625,8.837292671203613,3.5024940967559814,0.2027917206287384
1772883276016110300,0.4251103515625,8.74038314819336,3.586841106414795,0.26620152592658997
1772883276032732700,0.441732666015625,8.650053977966309,3.5617165565490723,0.2715853750705719
1772883276049333500,0.45833349609375,8.699705123901367,3.490530014038086,0.31824541091918945
1772883276065943000,0.474943115234375,9.035896301269531,3.4265220165252686,0.397208571434021
1772883276082531300,0.49153125,9.272786140441895,3.3003005981445312,0.3565305769443512
1772883276099161600,0.50816162109375,9.455238342285156,3.239881753921509,0.3409772217273712
1772883276115740000,0.524739990234375,9.419346809387207,3.1579277515411377,0.3930211067199707
1772883276132365600,0.541365478515625,9.45763111114502,3.190829038619995,0.5078766345977783
1772883276148964600,0.557964599609375,9.597611427307129,3.1764719486236572,0.6550351977348328
1772883276165574400,0.574574462890625,9.751350402832031,3.149552822113037,0.6592226624488831
1772883276182152000,0.59115185546875,9.507282257080078,3.0580272674560547,0.4205385744571686
1772883276198779400,0.607779296875,9.072985649108887,3.235694408416748,0.3810569941997528
1772883276215364600,0.624364501953125,8.892327308654785,3.4809587001800537,0.5180460810661316
1772883276231982000,0.640982177734375,8.924032211303711,3.6335012912750244,0.6526423692703247
1772883276248582700,0.657582763671875,9.039485931396484,3.596412420272827,0.6376872062683105
1772883276265191400,0.67419140625,9.227322578430176,3.4893336296081543,0.5736792087554932
1772883276281793800,0.690793701171875,9.44746208190918,3.477369546890259,0.529412031173706
1772883276298393600,0.7073935546875,9.645467758178711,3.4265220165252686,0.6185446381568909
1772883276315006500,0.72400634765625,9.842277526855469,3.4229328632354736,0.727418065071106
1772883276331605200,0.740605224609375,10.169496536254883,3.569493293762207,0.7507480978965759
1772883276348221400,0.757221435546875,10.553544044494629,3.535395383834839,0.7962117195129395
1772883276364836400,0.77383642578125,10.816156387329102,3.5054850578308105,0.6508477330207825
1772883276381424400,0.79042431640625,10.763514518737793,3.7118661403656006,0.5186443328857422
1772883276398040800,0.807040771484375,10.450653076171875,3.8560338020324707,0.6460621356964111
1772883276414637300,0.82363720703125,10.344172477722168,3.7716867923736572,0.8901300430297852
1772883276431286500,0.84028662109375,10.687541961669922,3.3577284812927246,1.0091729164123535
1772883276447863600,0.856863525390625,11.245070457458496,2.6147570610046387,0.7519445419311523
1772883276464452400,0.873452392578125,11.638689041137695,1.9052850008010864,0.26141586899757385
1772883276481056000,0.890055908203125,11.734402656555176,1.5122638940811157,-0.11964113265275955
1772883276497667800,0.906667724609375,11.627323150634766,1.3435698747634888,-0.1543370634317398
1772883276514275000,0.923275146484375,10.929217338562012,1.3022937774658203,-0.12681959569454193
1772883276530879500,0.93987939453125,10.03310489654541,1.3836497068405151,-0.12083754688501358
1772883276547489000,0.956489013671875,9.174081802368164,1.5224334001541138,-0.11485548317432404
1772883276564087800,0.973087890625,8.831908226013184,1.633699655532837,-0.11246266216039658
1772883276580685000,0.98968505859375,8.784649848937988,1.6187444925308228,-0.12622138857841492
1772883276597299000,1.006298828125,8.952746391296387,1.5966109037399292,-0.10348957777023315
1772883276613908700,1.02290869140625,9.071788787841797,1.607378602027893,-0.11844471842050552
1772883276630512000,1.03951220703125,9.055039405822754,1.689931035041809,-0.23748764395713806
1772883276647111700,1.056111572265625,9.084949493408203,1.674975872039795,-0.1704886108636856
1772883276663720700,1.072720703125,8.891130447387695,1.8023936748504639,-0.14476576447486877
1772883276680329700,1.089329833984375,8.524430274963379,2.007578134536743,0.0023928226437419653
1772883276696929800,1.1059296875,8.575278282165527,2.1643080711364746,0.1944168359041214
1772883276713519900,1.122519775390625,8.998807907104492,2.0679969787597656,0.24885354936122894
1772883276730128100,1.139128173828125,9.378069877624512,1.9722840785980225,0.16929219663143158
1772883276746729200,1.155729248046875,9.670592308044434,1.9884356260299683,0.3158525824546814
1772883276763339300,1.17233935546875,9.756135940551758,2.0883359909057617,0.527019202709198
1772883276779933400,1.188933349609375,9.384052276611328,2.317448616027832,0.6550351977348328
1772883276796546600,1.205546630859375,8.907281875610352,2.503490686416626,0.7399803996086121
1772883276813151700,1.22215185546875,8.742775917053223,2.541177749633789,0.5934200286865234
1772883276829757700,1.2387578125,9.079565048217773,2.4400808811187744,0.5042873620986938
1772883276846378000,1.2553779296875,9.143573760986328,2.2749760150909424,0.3164508044719696
1772883276862993400,1.271993408203125,8.883952140808105,2.273181438446045,0.1453639715909958
1772883276879585500,1.28858544921875,8.58604621887207,2.3186452388763428,0.09032905846834183
1772883276896196400,1.3051962890625,8.4502534866333,2.4783661365509033,0.2548356056213379
1772883276912789000,1.3217890625,8.429315567016602,2.6255247592926025,0.39960137009620667
1772883276929399000,1.33839892578125,8.483752250671387,2.750549554824829,0.357128769159317
1772883276946007800,1.3550078125,8.423932075500488,2.8277182579040527,0.2147558331489563
1772883276962614800,1.37161474609375,8.196015357971191,2.9790642261505127,0.13579268753528595
1772883276979204400,1.388204345703125,7.9489569664001465,3.1716864109039307,0.25304099917411804
1772883276995821000,1.404821044921875,7.89332389831543,3.3846476078033447,0.4366901218891144
1772883277012421600,1.421421630859375,8.13380241394043,3.597608804702759,0.4899304509162903
1772883277029040400,1.438040283203125,8.462815284729004,3.696312665939331,0.5605186820030212
1772883277045625600,1.45462548828125,8.649456024169922,3.693321704864502,0.6215356588363647
1772883277062230000,1.47122998046875,8.73619556427002,3.6981074810028076,0.6975077986717224
1772883277078817300,1.4878173828125,8.936594009399414,3.7848472595214844,0.8835497498512268
1772883277095450600,1.50445068359375,9.300901412963867,3.830310821533203,1.0923235416412354
1772883277112053800,1.5210537109375,9.689735412597656,3.78544545173645,1.2041879892349243
1772883277128657000,1.537656982421875,10.003194808959961,3.6508491039276123,1.1300104856491089
1772883277145282600,1.554282470703125,10.101301193237305,3.710669755935669,0.9625129103660583
1772883277161855500,1.57085546875,9.872786521911621,3.8907296657562256,0.9026923179626465
1772883277178459100,1.587459228515625,9.614959716796875,4.131806373596191,0.9206385016441345
1772883277195079200,1.6040791015625,9.57607650756836,4.334000110626221,0.6879364848136902
1772883277211670300,1.620670166015625,9.675976753234863,4.335794448852539,0.6442674994468689
1772883277228276000,1.63727587890625,9.675976753234863,4.1282172203063965,0.8147560954093933
1772883277244889000,1.65388916015625,9.717252731323242,3.8249270915985107,1.089930772781372
1772883277261486800,1.67048681640625,9.942776679992676,3.352344512939453,1.2526426315307617
1772883277278092000,1.687092041015625,10.059426307678223,2.764906644821167,1.3046865463256836
1772883277294695400,1.7036953125,10.125228881835938,2.3018953800201416,1.2436695098876953
1772883277311302400,1.720302490234375,9.829116821289062,1.9363917112350464,1.0462616682052612
1772883277327925000,1.736925048828125,9.406784057617188,1.6618152856826782,0.745364248752594
1772883277344507100,1.753507080078125,9.192028045654297,1.532004714012146,0.47796630859375
1772883277361117200,1.7701171875,9.20279598236084,1.3298112154006958,0.08434699475765228
1772883277377709800,1.786709716796875,9.416953086853027,1.052243709564209,-0.1818545162677765
1772883277394326300,1.803326171875,9.671789169311523,0.9409775137901306,-0.33738797903060913
1772883277410934300,1.819934326171875,9.995418548583984,1.0444670915603638,-0.2476571500301361
1772883277427535600,1.83653564453125,10.023533821105957,1.1443674564361572,-0.09870393574237823
1772883277444158700,1.85315869140625,9.78664493560791,1.373480200767517,0.20578274130821228
1772883277460759300,1.86975927734375,9.419944763183594,1.6253247261047363,0.5060819983482361
1772883277477351700,1.8863515625,9.1657075881958,1.7455641031265259,0.7238288521766663
1772883277493971200,1.90297119140625,9.261420249938965,1.689931035041809,0.5742774605751038
1772883277510579700,1.919579833984375,9.370293617248535,1.425524115562439,0.32303106784820557
1772883277527173600,1.936173583984375,9.586843490600586,1.215553879737854,-0.04307080805301666
1772883277543785700,1.95278564453125,9.69930648803711,0.966102123260498,-0.41874396800994873
1772883277560388600,1.969388671875,9.652048110961914,0.8805587291717529,-0.5910272002220154
1772883277576972000,1.985971923828125,9.324830055236816,0.9589236974716187,-0.6317051649093628
1772883277593600500,2.0026005859375,9.076574325561523,1.1904292106628418,-0.600000262260437
1772883277610204400,2.019204345703125,9.037691116333008,1.4350954294204712,-0.7082754969596863
1772883277626813200,2.035813232421875,8.950352668762207,1.4871392250061035,-0.7980063557624817
1772883277643415000,2.0524150390625,8.786444664001465,1.5894324779510498,-0.6526423692703247
1772883277660019000,2.06901904296875,8.71645450592041,1.8263218402862549,-0.4259224236011505
1772883277676623400,2.085623291015625,8.70927619934082,2.002194404602051,-0.25244277715682983
1772883277693226800,2.102226806640625,8.578866958618164,2.1236300468444824,-0.07836493849754333
1772883277709818400,2.118818359375,8.597412109375,2.2133610248565674,0.06580262631177902
1772883277726425300,2.13542529296875,8.86660385131836,2.210369825363159,0.19322042167186737
1772883277743031600,2.152031494140625,9.20279598236084,2.1278176307678223,0.20039889216423035
1772883277759637000,2.168636962890625,9.336793899536133,2.073380708694458,0.07477571070194244
1772883277776235300,2.1852353515625,9.211769104003906,2.1056840419769287,0.04666004329919815
1772883277792846300,2.201846435546875,9.267401695251465,2.211566209793091,0.018544375896453857
1772883277809452300,2.218452392578125,9.559925079345703,2.213959217071533,0.13639089465141296
1772883277826073600,2.235073486328125,9.890732765197754,2.211566209793091,0.22552353143692017
1772883277842674200,2.251674072265625,10.115657806396484,2.148754835128784,0.061016976833343506
1772883277859282200,2.2682822265625,10.238887786865234,2.1750757694244385,-0.05383851006627083
1772883277875915800,2.284915771484375,10.17428207397461,2.2749760150909424,-0.1010967567563057
1772883277892490000,2.301489990234375,9.932008743286133,2.4400808811187744,-0.12681959569454193
1772883277909088500,2.318088623046875,9.697511672973633,2.6907291412353516,-0.07597211748361588
1772883277925705000,2.334705078125,9.67777156829834,2.761915445327759,-0.02751746028661728
1772883277942305300,2.35130517578125,9.968499183654785,2.6057839393615723,0.10348957777023315
1772883277958915600,2.36791552734375,10.443474769592285,2.5393829345703125,0.1052841991186142
1772883277975515000,2.384514892578125,10.627123832702637,2.6572296619415283,-0.009571290574967861
1772883277992122600,2.40112255859375,10.703095436096191,2.659024238586426,-0.129810631275177
1772883278008717600,2.417717529296875,11.030912399291992,2.7349963188171387,-0.2267199456691742
1772883278025333800,2.434333740234375,11.46102237701416,2.7499513626098633,-0.2913261651992798
1772883278041936000,2.450935791015625,12.037692070007324,2.6638097763061523,-0.12741780281066895
1772883278058559700,2.467559814453125,12.559328079223633,2.2325034141540527,0.07657032459974289
1772883278075128300,2.48412841796875,12.41994571685791,1.5170495510101318,0.16809579730033875
1772883278091750700,2.500750732421875,12.061022758483887,0.7950153350830078,0.18843477964401245
1772883278108350700,2.517350830078125,12.062817573547363,0.389431893825531,0.08015955984592438
1772883278124961800,2.5339619140625,11.767303466796875,-0.017946170642971992,-0.24646073579788208
1772883278141563600,2.550563720703125,10.897512435913086,-0.24406790733337402,-0.6592226624488831
1772883278158168300,2.567168212890625,9.745966911315918,-0.14895321428775787,-0.9248259663581848
1772883278174778000,2.583778076171875,8.69910717010498,0.040677983313798904,-0.9266205430030823
1772883278191357700,2.600357666015625,8.015955924987793,0.23389841616153717,-0.8979067206382751
1772883278207970300,2.61697021484375,7.442874908447266,0.5132604837417603,-0.6915257573127747
1772883278224576000,2.633575927734375,7.232306480407715,0.8668000102043152,-0.33379876613616943
1772883278241182500,2.650182373046875,7.303493022918701,1.01814603805542,-0.03170489892363548
1772883278257787100,2.666787109375,7.561917781829834,0.9834501147270203,-0.14356936514377594
1772883278274377500,2.68337744140625,7.847859859466553,1.0348957777023315,-0.1543370634317398
1772883278290996700,2.699996826171875,8.302495956420898,1.1054840087890625,0.015553346835076809
1772883278307614000,2.716614013671875,8.675776481628418,1.057029366493225,-0.04905286431312561
1772883278324227300,2.733227294921875,8.915657043457031,0.8955138921737671,-0.47676992416381836
1772883278340824000,2.749823974609375,9.126823425292969,0.6867401003837585,-0.9529415965080261
1772883278357444000,2.766444091796875,9.253643035888672,0.4749752879142761,-1.2376874685287476
1772883278374023400,2.7830234375,9.410971641540527,0.4582255482673645,-1.358525037765503
1772883278390637600,2.799637451171875,9.833304405212402,0.48035913705825806,-1.1018948554992676
1772883278407227000,2.816226806640625,10.163514137268066,0.6472585201263428,-0.6340979933738708
1772883278423854000,2.83285400390625,10.314860343933105,0.8422735929489136,-0.3128615617752075
1772883278440454000,2.849453857421875,10.103095054626465,0.9535398483276367,-0.1339980661869049
1772883278457041700,2.866041748046875,9.626923561096191,1.1383854150772095,0.0323031060397625
1772883278473664800,2.882664794921875,9.285347938537598,1.3202399015426636,0.1986042857170105
1772883278490278100,2.899278076171875,8.9581298828125,1.4398809671401978,0.33020952343940735
1772883278506850000,2.91585009765625,8.877969741821289,1.6630117893218994,0.4426721930503845
1772883278523480300,2.932480224609375,8.901898384094238,1.7240287065505981,0.5958128571510315
1772883278540081200,2.9490810546875,8.640482902526855,1.6959130764007568,0.7645068168640137
1772883278556690200,2.965690185546875,8.639286041259766,2.0446670055389404,0.8961120843887329
1772883278573291500,2.98229150390625,9.284152030944824,2.1649062633514404,1.0606186389923096
1772883278589905400,2.998905517578125,9.407979965209961,2.1858434677124023,1.0265209674835205
1772883278606492400,3.015492431640625,9.10409164428711,2.2791635990142822,0.9050851464271545
1772883278623118000,3.0321181640625,9.091529846191406,2.4646072387695312,0.997208833694458
1772883278639711200,3.048711181640625,9.65384292602539,2.4257240295410156,1.256830096244812
1772883278656320000,3.065320068359375,10.289137840270996,2.3533411026000977,1.5780665874481201
1772883278672924700,3.081924560546875,10.868200302124023,2.359323024749756,1.6414763927459717
1772883278689513200,3.09851318359375,11.577672004699707,2.210968017578125,1.3926228284835815
1772883278706118700,3.11511865234375,12.268001556396484,1.9453648328781128,0.8368897438049316
1772883278722718500,3.131718505859375,12.305688858032227,1.797009825706482,0.29012975096702576
1772883278739331600,3.14833154296875,11.94915771484375,2.059622049331665,-0.08853443711996078
1772883278755939000,3.16493896484375,11.748759269714355,2.2677977085113525,-0.09571290761232376
1772883278772541200,3.181541259765625,11.892927169799805,2.273181438446045,0.047258246690034866
1772883278789134600,3.198134521484375,12.280564308166504,2.042274236679077,0.08614161610603333
1772883278805769200,3.214769287109375,12.444472312927246,1.4979069232940674,0.1866401731967926
1772883278822370800,3.231370849609375,12.217154502868652,0.8877372145652771,0.2027917206287384
1772883278838975700,3.247975830078125,11.779866218566895,0.4295116662979126,0.05802594870328903
1772883278855580400,3.264580322265625,11.310274124145508,0.08733802288770676,-0.28115665912628174
1772883278872150000,3.28114990234375,10.48534870147705,-0.20997019112110138,-0.6951149702072144
1772883278888794400,3.29779443359375,9.467801094055176,-0.38644084334373474,-0.9774680733680725
1772883278905391600,3.3143916015625,8.507680892944336,-0.26201409101486206,-1.028315544128418
1772883278922005000,3.3310048828125,7.7563347816467285,0.07238288223743439,-0.8303094506263733
1772883278938605800,3.347605712890625,7.371688365936279,0.30508488416671753,-0.4821537733078003
1772883278955190000,3.36418994140625,7.263412952423096,0.37148571014404297,0.03529413416981697
1772883278971817200,3.380817138671875,7.245467185974121,0.6699903607368469,0.3774677813053131
1772883278988404000,3.397404052734375,7.271788120269775,0.8883354067802429,0.6083751320838928
1772883279005012500,3.414012451171875,7.355536937713623,1.0277173519134521,0.6281159520149231
1772883279021616600,3.43061669921875,7.469794273376465,1.0432707071304321,0.6083751320838928
1772883279038222000,3.44722216796875,7.784450054168701,1.0528420209884644,0.43908295035362244
1772883279054827000,3.463826904296875,8.38265609741211,0.9655039310455322,0.23449662327766418
1772883279071432000,3.480431884765625,8.814560890197754,0.851844847202301,0.08733802288770676
1772883279088036600,3.49703662109375,9.124430656433105,0.8566305041313171,-0.1052841991186142
1772883279104633600,3.513633544921875,9.297910690307617,0.989432156085968,-0.2967100143432617
1772883279121265200,3.53026513671875,9.317651748657227,1.1341979503631592,-0.46779683232307434
1772883279137865200,3.546865234375,9.215357780456543,1.1922239065170288,-0.605384111404419
1772883279154471000,3.563470947265625,9.050851821899414,1.2436695098876953,-0.6951149702072144
1772883279171073300,3.5800732421875,8.794819831848145,1.3704891204833984,-0.7501499056816101
1772883279187666000,3.596666015625,8.742775917053223,1.5619150400161743,-0.8057830333709717
1772883279204274200,3.613274169921875,8.851051330566406,1.6534404754638672,-0.7914260625839233
1772883279220878300,3.62987841796875,8.915657043457031,1.8161523342132568,-0.7046862840652466
1772883279237478700,3.646478759765625,8.970691680908203,1.9884356260299683,-0.6221339106559753
1772883279254087000,3.6630869140625,8.754739761352539,2.245065927505493,-0.6622136831283569
1772883279270691800,3.67969189453125,8.704490661621094,2.4293131828308105,-0.45523449778556824
1772883279287310600,3.696310546875,8.754141807556152,2.6536402702331543,-0.28594231605529785
1772883279303918300,3.71291845703125,8.9581298828125,2.760719060897827,-0.267397940158844
1772883279320521000,3.72952099609375,9.215357780456543,2.7834508419036865,-0.3595215976238251
1772883279337126400,3.74612646484375,9.585049629211426,2.7014968395233154,-0.41515472531318665
1772883279353730800,3.762730712890625,9.857831001281738,2.6811578273773193,-0.45942193269729614
1772883279370333200,3.779333251953125,10.130014419555664,2.6943182945251465,-0.5282155871391296
1772883279386948900,3.795948974609375,10.51944637298584,2.5603201389312744,-0.5982056856155396
1772883279403536100,3.8125361328125,10.804790496826172,2.373081922531128,-0.7304090857505798
1772883279420155000,3.82915478515625,11.152348518371582,2.4017956256866455,-0.8949156403541565
1772883279436756000,3.845755859375,11.57827091217041,2.3545374870300293,-0.9930213689804077
1772883279453361000,3.86236083984375,11.94915771484375,2.252842426300049,-0.9050851464271545
1772883279469956000,3.8789560546875,12.328420639038086,2.2743778228759766,-0.6969096064567566
1772883279486559500,3.8955595703125,12.669397354125977,2.2576282024383545,-0.5216353535652161
1772883279503180300,3.91218017578125,12.92782211303711,2.0811574459075928,-0.3188436031341553
1772883279519785200,3.92878515625,13.010375022888184,1.77607262134552,-0.3116651475429535
1772883279536385500,3.945385498046875,13.024133682250977,1.236491084098816,-0.45942193269729614
1772883279552991000,3.961990966796875,12.703495025634766,0.6939185857772827,-0.6340979933738708
1772883279569595600,3.978595703125,12.1597261428833,0.2829512655735016,-0.8249256014823914
1772883279586198000,3.995197998046875,11.640483856201172,0.11066804826259613,-0.9619147181510925
1772883279602806000,4.011805908203125,11.075180053710938,0.06819544732570648,-1.174277663230896
1772883279619415300,4.028415283203125,10.29033374786377,0.017946170642971992,-1.3519448041915894
1772883279636015600,4.045015625,9.17467975616455,0.05383851006627083,-1.3214362859725952
1772883279652621300,4.061621337890625,8.002795219421387,0.3409772217273712,-1.1455638408660889
1772883279669222100,4.07822216796875,7.278966426849365,0.7429714202880859,-0.9230313301086426
1772883279685817300,4.0948173828125,6.949953556060791,1.0097711086273193,-0.6610172390937805
1772883279702411500,4.11141162109375,6.917052268981934,1.3094722032546997,-0.44386860728263855
1772883279719028700,4.12802880859375,7.179664134979248,1.444068431854248,-0.20039889216423035
1772883279735632100,4.144632080078125,7.624729156494141,1.444068431854248,-0.1788634955883026
1772883279752237600,4.161237548828125,8.004590034484863,1.2915260791778564,-0.3445664644241333
1772883279768842500,4.177842529296875,8.172087669372559,1.194616675376892,-0.600000262260437
1772883279785464300,4.19446435546875,8.487939834594727,1.1186445951461792,-0.8075776696205139
1772883279802066400,4.21106640625,9.005388259887695,1.0019944906234741,-1.0552347898483276
1772883279818671400,4.22767138671875,9.493523597717285,0.8709874153137207,-1.3986048698425293
1772883279835276500,4.244276611328125,9.887741088867188,0.6861419081687927,-1.679761528968811
1772883279851880700,4.260880615234375,10.032506942749023,0.5641079545021057,-1.8011972904205322
1772883279868485000,4.277485107421875,10.03310489654541,0.5778666734695435,-1.6815561056137085
1772883279885092400,4.29409228515625,9.759127616882324,0.7680960893630981,-1.333998680114746
1772883279901696500,4.310696533203125,9.565308570861816,1.007378339767456,-0.9966106414794922
1772883279918298000,4.327298095703125,9.339784622192383,1.109073281288147,-0.8321040868759155
1772883279934909400,4.343909423828125,9.013762474060059,1.176072359085083,-0.7004988193511963
1772883279951507200,4.360507080078125,8.700303077697754,1.306481122970581,-0.6783652305603027
1772883279968123600,4.37712353515625,8.425128936767578,1.461416482925415,-0.6616154313087463
1772883279984718800,4.39371875,8.407182693481445,1.6522440910339355,-0.6215356588363647
1772883280001326800,4.410326904296875,8.361719131469727,1.8185452222824097,-0.5485545992851257
1772883280017931800,4.426931884765625,8.137392044067383,2.0548365116119385,-0.4977070987224579
1772883280034536400,4.443536376953125,8.071588516235352,2.2779672145843506,-0.3523431420326233
1772883280051140600,4.460140625,8.279764175415039,2.489133834838867,-0.12681959569454193
1772883280067747000,4.4767470703125,8.745766639709473,2.7080769538879395,0.04426721855998039
1772883280084352300,4.493352294921875,9.256634712219238,2.799004316329956,0.1136590763926506
1772883280100956400,4.509956298828125,9.54377269744873,2.7930221557617188,0.08315058797597885
1772883280117560300,4.526560302734375,9.653244972229004,2.8181469440460205,0.08315058797597885
1772883280134166800,4.543166748046875,9.7669038772583,2.8528428077697754,0.05383851006627083
1772883280150771200,4.559771240234375,10.051051139831543,2.7326035499572754,-0.0729810893535614
1772883280167358500,4.5763583984375,10.418350219726562,2.479562520980835,-0.22013968229293823
1772883280183969300,4.59296923828125,10.72582721710205,2.3647069931030273,-0.4097708761692047
1772883280200572700,4.60957275390625,11.054841041564941,2.345564365386963,-0.5886343717575073
1772883280217178000,4.62617822265625,11.32822036743164,2.273181438446045,-0.6813562512397766
1772883280233782500,4.642782470703125,11.383853912353516,2.318047046661377,-0.8488538265228271
1772883280250387700,4.6593876953125,11.478968620300293,2.596810817718506,-0.9188438653945923
1772883280266992000,4.6759921875,11.398210525512695,2.8486554622650146,-0.8063812255859375
1772883280283618600,4.69261865234375,11.163714408874512,2.9066812992095947,-0.5850451588630676
1772883280300211500,4.70921142578125,11.21216869354248,2.723032236099243,-0.3236292600631714
1772883280316827400,4.725827392578125,11.604591369628906,2.060220241546631,-0.03888336941599846
1772883280333426700,4.7424267578125,12.031112670898438,1.3070793151855469,0.12023933976888657
1772883280350031600,4.759031494140625,11.941381454467773,0.6765705943107605,-0.11306086927652359
1772883280366642400,4.775642333984375,11.34377384185791,0.2153540402650833,-0.6729813814163208
1772883280383236600,4.792236572265625,10.491929054260254,-0.04127619042992592,-1.425524115562439
1772883280399846700,4.8088466796875,9.387042999267578,-0.20817556977272034,-1.7886348962783813
1772883280416452000,4.8254521484375,8.211568832397461,0.0023928226437419653,-1.6468602418899536
1772883280433057300,4.842057373046875,7.321439266204834,0.41994038224220276,-1.2131611108779907
1772883280449661400,4.858661376953125,6.869793891906738,0.8859425783157349,-0.8291130661964417
1772883280466261200,4.87526123046875,6.768697261810303,1.2747762203216553,-0.5485545992851257
1772883280482873900,4.891873779296875,6.8865437507629395,1.516451358795166,-0.11186445504426956
1772883280499481000,4.908481201171875,7.03489875793457,1.705484390258789,0.3858426511287689
1772883280516082200,4.925082275390625,7.347760200500488,1.7437695264816284,0.7956135272979736
1772883280532687600,4.9416875,7.9519476890563965,1.7018951177597046,0.8781659007072449
1772883280549291500,4.95829150390625,8.635697364807129,1.423729419708252,0.7286145091056824
1772883280565893400,4.974893310546875,9.128618240356445,1.0671988725662231,0.46061834692955017
1772883280582502400,4.99150244140625,9.501300811767578,0.7345965504646301,0.10169496387243271
1772883280599111000,5.00811083984375,9.786046028137207,0.4211367964744568,-0.44745782017707825
1772883280615712300,5.024712158203125,10.01994514465332,0.26620152592658997,-1.0139585733413696
1772883280632318000,5.04131787109375,10.223334312438965,0.22432711720466614,-1.4793626070022583
1772883280648921900,5.057921875,10.13479995727539,0.2638086974620819,-1.7563318014144897
1772883280665510000,5.074510009765625,9.743574142456055,0.3756731450557709,-1.9298114776611328
1772883280682119400,5.091119384765625,9.305686950683594,0.5288137793540955,-1.9166508913040161
1772883280698723600,5.1077236328125,9.32183837890625,0.747757077217102,-1.7336000204086304
1772883280715328500,5.12432861328125,9.5264253616333,0.8632107973098755,-1.547558069229126
1772883280731933700,5.14093359375,9.366106033325195,1.028315544128418,-1.4398809671401978
1772883280748538600,5.15753857421875,9.06281566619873,1.1904292106628418,-1.2460623979568481
1772883280765157400,5.174157470703125,8.9312105178833,1.4021940231323242,-0.9996016621589661
1772883280781766400,5.190766357421875,9.107681274414062,1.5176477432250977,-0.7746763229370117
1772883280798367500,5.207367431640625,9.016156196594238,1.5966109037399292,-0.6209374666213989
1772883280814972400,5.223972412109375,8.851649284362793,1.7138592004776,-0.50907301902771
1772883280831577000,5.2405771484375,8.911469459533691,1.8293129205703735,-0.537188708782196
1772883280848182800,5.257182861328125,9.18425178527832,1.789831280708313,-0.649053156375885
1772883280864783000,5.273783203125,9.616155624389648,1.7048860788345337,-0.7860422134399414
1772883280881397000,5.29039697265625,10.15155029296875,1.6354942321777344,-0.9906286001205444
1772883280897998000,5.306998046875,10.385448455810547,1.643869161605835,-1.054038405418396
1772883280914602200,5.323602294921875,10.498509407043457,1.7832510471343994,-0.9960124492645264
1772883280931208200,5.340208251953125,10.698309898376465,1.8843477964401245,-0.833898663520813
1772883280947796200,5.356796142578125,11.071590423583984,1.9262222051620483,-0.7399803996086121
1772883280964417000,5.3734169921875,11.452049255371094,2.0548365116119385,-0.7507480978965759
1772883280981023500,5.3900234375,11.858230590820312,2.021935224533081,-0.8727820515632629
1772883280997627400,5.40662744140625,12.40140151977539,1.8705891370773315,-0.9487541913986206
1772883281014233300,5.4232333984375,12.816555976867676,1.683350682258606,-0.9427721500396729
1772883281030838300,5.43983837890625,12.969696998596191,1.4171491861343384,-0.9888339638710022
1772883281047442200,5.456442138671875,12.930813789367676,1.1264212131500244,-1.1724830865859985
1772883281064044000,5.4730439453125,12.750155448913574,0.7992027401924133,-1.1736794710159302
1772883281080663800,5.489663818359375,12.31107234954834,0.5258227586746216,-1.077966570854187
1772883281097251800,5.506251953125,11.619546890258789,0.4223332107067108,-1.0552347898483276
1772883281113863200,5.52286328125,11.156535148620605,0.3409772217273712,-1.1156535148620605
1772883281130468600,5.539468505859375,11.059027671813965,0.13519448041915894,-1.2077772617340088
1772883281147055900,5.556055908203125,10.910673141479492,-0.08733802288770676,-1.1413763761520386
1772883281163660800,5.572660888671875,10.28734302520752,-0.21954147517681122,-0.9810572862625122
1772883281180273000,5.58927294921875,9.46899700164795,-0.15314064919948578,-0.8177471160888672
1772883281196874500,5.60587451171875,8.687142372131348,-0.014356935396790504,-0.7166503667831421
1772883281213479200,5.622479248046875,8.003992080688477,0.14656038582324982,-0.7884350419044495
1772883281230084600,5.639084716796875,7.441678524017334,0.2883351147174835,-0.7459624409675598
1772883281246689500,5.655689453125,7.051050186157227,0.4654040038585663,-0.6945167779922485
1772883281263315700,5.672315673828125,6.925426959991455,0.5599204897880554,-0.6598208546638489
1772883281279909400,5.688909423828125,7.091129779815674,0.6149554252624512,-0.7657032608985901
1772883281296518400,5.705518310546875,7.5188469886779785,0.6831508874893188,-0.9589236974716187
1772883281313123600,5.72212353515625,7.963912010192871,0.6137589812278748,-1.2005987167358398
1772883281329719600,5.738719482421875,8.298907279968262,0.5605186820030212,-1.2891331911087036
1772883281346333000,5.7553330078125,8.502297401428223,0.6969096064567566,-1.2843475341796875
1772883281362936000,5.77193603515625,8.907281875610352,0.7639086246490479,-1.353141188621521
1772883281379545900,5.7885458984375,9.325428009033203,0.6586244106292725,-1.3950155973434448
1772883281396149000,5.80514892578125,9.637093544006348,0.6101697683334351,-1.4829518795013428
1772883281412753700,5.821753662109375,9.885348320007324,0.5892325639724731,-1.5463616847991943
1772883281429359000,5.838359130859375,9.830313682556152,0.727418065071106,-1.5643078088760376
1772883281445963000,5.854962890625,9.44447135925293,0.9092726111412048,-1.469791293144226
1772883281462572300,5.871572265625,9.154341697692871,1.1485549211502075,-1.2562319040298462
1772883281479170300,5.88817041015625,9.114859580993652,1.2616157531738281,-1.0875378847122192
1772883281495779000,5.904779052734375,9.078967094421387,1.41834557056427,-0.9954141974449158
1772883281512383700,5.9213837890625,8.980263710021973,1.6271194219589233,-0.8883354067802429
1772883281528989200,5.9379892578125,8.618349075317383,1.8185452222824097,-0.784247636795044
1772883281545593900,5.95459375,8.432307243347168,2.1026928424835205,-0.6472585201263428
1772883281562189800,5.97118994140625,8.61894702911377,2.390429735183716,-0.5312066078186035
1772883281578813200,5.987813232421875,8.630910873413086,2.5334010124206543,-0.4588237404823303
1772883281595409200,6.0044091796875,8.483154296875,2.7523441314697266,-0.47557350993156433
1772883281612013600,6.021013671875,8.681758880615234,2.963510751724243,-0.259621262550354
1772883281628619000,6.037618896484375,9.245268821716309,3.087339401245117,-0.07058826833963394
1772883281645205500,6.05420556640625,9.638887405395508,3.005983352661133,-0.09272187948226929
1772883281661818000,6.070818115234375,10.156335830688477,2.9353952407836914,-0.17706887423992157
1772883281678418400,6.08741845703125,10.64686393737793,2.8390841484069824,-0.04666004329919815
1772883281695025400,6.104025390625,10.815558433532715,2.7936203479766846,-0.053240302950143814
1772883281711630000,6.120630126953125,11.00160026550293,2.7774689197540283,-0.2069791555404663
1772883281728235300,6.1372353515625,11.23609733581543,2.699702262878418,-0.3523431420326233
1772883281744840200,6.153840087890625,11.703295707702637,2.7774689197540283,-0.4504488706588745
1772883281761442300,6.1704423828125,11.783454895019531,2.8731818199157715,-0.35413774847984314
1772883281786366700,6.19536669921875,11.868400573730469,2.908475875854492,-0.43130627274513245
1772883281802972000,6.211971923828125,12.253644943237305,2.764308452606201,-0.486939400434494
1772883281819570200,6.228570068359375,12.535399436950684,2.575275421142578,-0.39421752095222473
1772883281836186400,6.245186279296875,12.20219898223877,2.2127628326416016,-0.39481574296951294
1772883281852788700,6.261788818359375,11.559725761413574,1.8508483171463013,-0.23629122972488403
1772883281869391400,6.278391357421875,10.792228698730469,1.7730815410614014,0.054436713457107544
1772883281885996800,6.294996826171875,10.24487018585205,1.7216359376907349,0.32961133122444153
1772883281902585300,6.31158544921875,10.316056251525879,1.709073543548584,0.24287149310112
1772883281919200300,6.3282001953125,10.305887222290039,1.4416756629943848,0.11665010452270508
1772883281935814400,6.344814453125,9.952347755432129,1.113858938217163,-0.05563312768936157
1772883281952435500,6.361435546875,9.322437286376953,1.0354939699172974,-0.04307080805301666
1772883281969021400,6.378021484375,8.271987915039062,1.4727823734283447,0.1094716340303421
1772883281985627100,6.394627197265625,7.703094482421875,2.0105693340301514,0.3080759048461914
1772883282002215400,6.41121533203125,7.605587005615234,2.461616277694702,0.5940182209014893
1772883282018837000,6.4278369140625,7.801199913024902,2.816352367401123,0.7818548083305359
1772883282035443700,6.444443603515625,8.175676345825195,2.9455647468566895,0.656829833984375
1772883282052045800,6.4610458984375,8.575278282165527,2.750549554824829,0.4426721930503845
1772883282068668700,6.477668701171875,8.94257640838623,2.5250260829925537,0.39541393518447876
1772883282085261300,6.49426123046875,9.17288589477539,2.504088878631592,0.37507495284080505
1772883282101844500,6.510844482421875,9.138788223266602,2.7762725353240967,0.3535395562648773
1772883282118474000,6.527473876953125,8.889934539794922,2.9617161750793457,0.1740778535604477
1772883282135055000,6.54405517578125,8.711668968200684,2.943171739578247,-0.06400800496339798
1772883282151652000,6.560652099609375,8.787641525268555,2.9359934329986572,-0.24586252868175507
1772883282168254500,6.57725439453125,8.864211082458496,2.884547710418701,-0.3475574851036072
1772883282184873500,6.59387353515625,8.787042617797852,2.89890456199646,-0.42831525206565857
1772883282201478100,6.61047802734375,8.33300495147705,3.0903303623199463,-0.47198426723480225
1772883282218084400,6.62708447265625,7.825726509094238,3.3200414180755615,-0.5629115104675293
1772883282234688500,6.6436884765625,7.65583610534668,3.5503506660461426,-0.2590230405330658
1772883282251311000,6.66031103515625,8.003992080688477,3.5407793521881104,0.22193430364131927
1772883282267912200,6.676912109375,8.26540756225586,3.6526436805725098,0.3122633695602417
1772883282284517400,6.693517333984375,8.449056625366211,3.8081772327423096,0.29790642857551575
1772883282301109500,6.710109619140625,8.367700576782227,3.7698919773101807,0.15493527054786682
1772883282317728300,6.726728271484375,7.914859294891357,3.848257064819336,-0.019142581149935722
1772883282334328600,6.74332861328125,7.407580852508545,4.110869407653809,-0.0526420995593071
1772883282350941400,6.75994140625,7.48056173324585,4.325624942779541,0.09212367236614227
1772883282367542300,6.776542236328125,8.113463401794434,4.359124660491943,0.3278166949748993
1772883282384147700,6.793147705078125,8.297112464904785,4.289134502410889,0.3930211067199707
1772883282400761300,6.80976123046875,8.065009117126465,4.420141696929932,0.41934216022491455
1772883282417358000,6.826358154296875,8.11824893951416,4.622334957122803,0.3774677813053131
1772883282433961500,6.84296142578125,8.46461009979248,4.525425910949707,0.3846462368965149
1772883282450568700,6.859568603515625,8.757132530212402,4.4482574462890625,0.267397940158844
1772883282467176700,6.8761767578125,8.726624488830566,4.562514781951904,0.2925225794315338
1772883282483777800,6.89277783203125,8.557332038879395,4.679164886474609,0.3900300860404968
1772883282500356400,6.9093564453125,8.562117576599121,4.707878589630127,0.42352959513664246
1772883282516988400,6.925988525390625,8.947361946105957,4.625326156616211,0.5258227586746216
1772883282533588700,6.942588623046875,9.366703987121582,4.508676052093506,0.6664010882377625
1772883282550201900,6.959201904296875,9.82373332977295,4.586442947387695,0.5730810165405273
1772883282566806800,6.975806884765625,10.117452621459961,4.498506546020508,0.5952146053314209
1772883282583408000,6.992408203125,10.599007606506348,4.570889472961426,0.5497509837150574
1772883282600008700,7.0090087890625,11.062019348144531,4.892126083374023,0.5300102233886719
1772883282616601300,7.025601318359375,10.98724365234375,4.869992256164551,0.755533754825592
1772883282633209300,7.042209228515625,10.362716674804688,4.711467742919922,0.6526423692703247
1772883282649814800,7.058814697265625,9.669994354248047,4.415954113006592,0.7495517134666443
1772883282666419700,7.075419677734375,9.7064847946167,4.11206579208374,1.0342975854873657
1772883282683024600,7.092024658203125,10.439287185668945,3.597608804702759,1.1461620330810547
1772883282699619000,7.108619140625,11.049456596374512,2.954537868499756,1.046859860420227
1772883282716235000,7.125235107421875,11.034502029418945,2.3772692680358887,0.7603194117546082
1772883282732839000,7.1418388671875,10.529616355895996,2.1535403728485107,0.5324030518531799
1772883282749463000,7.158463134765625,9.568299293518066,2.026122570037842,0.2111666053533554
1772883282766083300,7.175083251953125,8.508877754211426,2.2432711124420166,-0.19680966436862946
1772883282782668500,7.19166845703125,7.771289825439453,2.466402053833008,-0.37806597352027893
1772883282799274500,7.2082744140625,7.695915699005127,2.675773859024048,-0.3278166949748993
1772883282815882200,7.22488232421875,8.143373489379883,2.6913273334503174,0.10468599200248718
1772883282832484900,7.24148486328125,8.50708293914795,2.779263496398926,0.34277185797691345
1772883282849088000,7.258087890625,8.590831756591797,2.9048867225646973,0.36670008301734924
1772883282865677000,7.274677001953125,8.484949111938477,2.9653055667877197,0.41575294733047485
1772883282882298600,7.291298583984375,8.123034477233887,3.1519455909729004,0.5437689423561096
1772883282898895600,7.3078955078125,7.837690353393555,3.3816566467285156,0.7573283910751343
1772883282915509500,7.324509521484375,8.157132148742676,3.4755749702453613,0.8087740540504456
1772883282932114200,7.3411142578125,8.82532787322998,3.324826955795288,0.8039883971214294
1772883282948718300,7.35771826171875,9.321240425109863,3.1579277515411377,0.7902296781539917
1772883282965307100,7.37430712890625,9.263215065002441,3.1902308464050293,0.833898663520813
1772883282981929200,7.39092919921875,8.648259162902832,3.3134610652923584,0.7621139883995056
1772883282998541600,7.40754150390625,8.306683540344238,3.5324044227600098,0.4498506486415863
1772883283015139300,7.424139404296875,8.200202941894531,3.551547050476074,0.32602208852767944
1772883283031748600,7.44074853515625,8.084749221801758,3.593421459197998,0.29371899366378784
1772883283048344600,7.457344482421875,8.065607070922852,3.5886356830596924,0.32243284583091736
1772883283064954000,7.4739541015625,8.01236629486084,3.644867181777954,0.3900300860404968
1772883283081543200,7.490543212890625,8.124829292297363,3.779463291168213,0.44327038526535034
1772883283098152200,7.507152099609375,8.247461318969727,3.844069480895996,0.3326023519039154
1772883283114752500,7.52375244140625,8.154141426086426,3.8973097801208496,0.08973085135221481
1772883283131360800,7.54036083984375,7.921439170837402,4.001397609710693,-0.02273181453347206
1772883283147965700,7.556965576171875,7.688138961791992,4.227519512176514,0.07597211748361588
1772883283164570400,7.5735703125,7.661818027496338,4.450051784515381,0.30209386348724365
1772883283181162800,7.590162841796875,8.081758499145508,4.558925151824951,0.4301098585128784
1772883283197794600,7.606794677734375,8.666205406188965,4.555335998535156,0.5078766345977783
1772883283214385700,7.6233857421875,9.005986213684082,4.586442947387695,0.6687939167022705
1772883283230986200,7.639986328125,9.150154113769531,4.60139799118042,0.7734799385070801
1772883283247614000,7.656614013671875,9.372088432312012,4.512863636016846,0.771087110042572
1772883283264202000,7.673201904296875,9.637093544006348,4.409972190856934,0.8075776696205139
1772883283280807000,7.689806884765625,9.754341125488281,4.305285930633545,0.8919246196746826
1772883283297423000,7.706423095703125,9.93679428100586,4.3447675704956055,1.0253244638442993
1772883283314030300,7.7230302734375,10.302297592163086,4.266402721405029,1.1084750890731812
1772883283330630700,7.739630615234375,10.635498046875,4.36091947555542,1.1407781839370728
1772883283347243800,7.756243896484375,10.670792579650879,4.2987060546875,1.1928220987319946
1772883283363825400,7.772825439453125,10.52483081817627,4.139583110809326,1.1353943347930908
1772883283380479200,7.789479248046875,10.478768348693848,4.235894203186035,0.9589236974716187
1772883283397038300,7.806038330078125,10.334002494812012,4.165306091308594,1.2562319040298462
1772883283413660000,7.822659912109375,10.148558616638184,3.964308977127075,1.6145570278167725
1772883283430260700,7.8392607421875,10.109077453613281,3.649054527282715,2.0333011150360107
1772883283446874000,7.8558740234375,10.14317512512207,3.2685956954956055,2.4269204139709473
1772883283463475000,7.872474853515625,9.890732765197754,3.0478577613830566,2.7044878005981445
1772883283480056000,7.88905615234375,9.372088432312012,2.874976396560669,2.681756019592285
1772883283496681200,7.90568115234375,8.923434257507324,2.7565317153930664,2.5256242752075195
1772883283513290800,7.922290771484375,8.47896671295166,2.6297121047973633,2.2163519859313965
1772883283529891000,7.93889111328125,8.38684368133545,2.5740790367126465,1.872383713722229
1772883283546504200,7.955504150390625,8.370692253112793,2.62313175201416,1.7389838695526123
1772883283563090200,7.972090087890625,8.187042236328125,2.7122645378112793,1.721037745475769
1772883283579695900,7.98869580078125,8.151748657226562,2.844467878341675,1.8705891370773315
1772883283596300500,8.005300537109376,8.316853523254395,2.754737138748169,1.9459630250930786
1772883283612906800,8.02190673828125,8.404789924621582,2.641077995300293,1.9298114776611328
1772883283629508900,8.0385087890625,8.23250675201416,2.6488547325134277,1.9453648328781128
1772883283646120000,8.055119873046875,8.059624671936035,2.6805596351623535,1.8795621395111084
1772883283662721800,8.0717216796875,8.419146537780762,2.599801778793335,1.7431713342666626
1772883283679333400,8.08833349609375,8.884550094604492,2.4813570976257324,1.5864413976669312
1772883283695931600,8.104931640625,9.145966529846191,2.495713949203491,1.3794622421264648
1772883283712537300,8.121537353515626,9.052047729492188,2.6195425987243652,1.3094722032546997
1772883283729159700,8.13815966796875,8.606983184814453,2.8875386714935303,1.3184453248977661
1772883283745760300,8.15476025390625,8.248059272766113,3.1238300800323486,1.2317054271697998
1772883283762349000,8.17134912109375,8.225926399230957,3.2207393646240234,1.0552347898483276
1772883283778971600,8.1879716796875,8.335397720336914,3.1663026809692383,0.8153542876243591
1772883283795581700,8.204581787109374,8.35274600982666,3.1866414546966553,0.6526423692703247
1772883283812175000,8.221175048828124,8.333602905273438,3.2715866565704346,0.8350951075553894
1772883283828790000,8.2377900390625,8.514261245727539,3.3816566467285156,1.0402796268463135
1772883283845387300,8.25438720703125,8.609375953674316,3.463610887527466,1.1264212131500244
1772883283861996000,8.27099609375,8.510671615600586,3.5922250747680664,1.0516455173492432
1772883283878594600,8.287594482421875,8.325227737426758,3.7298123836517334,0.9104689955711365
1772883283895212000,8.3042119140625,8.37129020690918,3.7842490673065186,0.747757077217102
1772883283911815400,8.3208154296875,8.558527946472168,3.7387852668762207,0.7178468108177185
1772883283928412700,8.33741259765625,8.796015739440918,3.803989887237549,0.6352944374084473
1772883283945025500,8.354025634765625,8.899505615234375,3.8536407947540283,0.5635097622871399
1772883283961610000,8.37060986328125,9.034101486206055,3.8219358921051025,0.5623133182525635
1772883283978232000,8.387232177734376,9.237491607666016,3.7094733715057373,0.5461617708206177
1772883283994833400,8.40383349609375,9.364311218261719,3.5856447219848633,0.6017948985099792
1772883284011444200,8.4204443359375,9.562317848205566,3.308077335357666,0.857228696346283
1772883284028042500,8.43704248046875,10.430314064025879,3.033500909805298,1.0558329820632935
1772883284044655600,8.453655517578126,11.641680717468262,2.9898319244384766,1.0103694200515747
1772883284061256700,8.470256591796876,12.275179862976074,2.9006991386413574,1.0109676122665405
1772883284077861400,8.486861328125,12.203993797302246,3.1387851238250732,1.103689432144165
1772883284094449400,8.503449462890625,11.635100364685059,3.3296127319335938,0.9744769930839539
1772883284111058400,8.520058349609375,11.281560897827148,3.0484559535980225,0.9888339638710022
1772883284127658800,8.53665869140625,11.679367065429688,2.493321180343628,0.9158528447151184
1772883284144272400,8.5532724609375,12.33081340789795,1.9405791759490967,0.9320043921470642
1772883284160877600,8.569877685546874,12.715459823608398,1.3878371715545654,1.1024930477142334
1772883284177478700,8.586478759765624,12.701701164245605,0.875174880027771,1.170688509941101
1772883284194083300,8.603083251953125,12.084352493286133,0.5778666734695435,1.0474581718444824
1772883284210688300,8.619688232421876,11.029715538024902,0.6346961855888367,0.8626125454902649
1772883284227313400,8.6363134765625,9.913464546203613,0.8967102766036987,0.7082754969596863
1772883284243909400,8.652909423828126,8.96112060546875,1.098305583000183,0.5665007829666138
1772883284260536600,8.66953662109375,8.383852005004883,1.2317054271697998,0.42293140292167664
1772883284277122800,8.686122802734374,8.333602905273438,1.3465609550476074,0.39541393518447876
1772883284293726700,8.702726806640625,8.48853874206543,1.506281852722168,0.3858426511287689
1772883284310329600,8.71932958984375,8.415556907653809,1.5858432054519653,0.49710890650749207
1772883284326940400,8.7359404296875,8.361120223999023,1.690529227256775,0.5024927258491516
1772883284343542800,8.752542724609375,8.546564102172852,1.7688941955566406,0.5120640397071838
1772883284360123100,8.769123046875,8.70508861541748,1.6995022296905518,0.4145565330982208
1772883284376753000,8.7857529296875,8.691329956054688,1.6707884073257446,0.4145565330982208
1772883284393357300,8.802357421875,8.85224723815918,1.7676976919174194,0.49591249227523804
1772883284409966000,8.818966064453125,9.226125717163086,1.7240287065505981,0.4265206456184387
1772883284426561300,8.835561279296876,9.443872451782227,1.7485551834106445,0.1094716340303421
1772883284443176000,8.852176025390625,9.053842544555664,1.8496519327163696,0.07417750358581543
1772883284459791600,8.86879150390625,8.48435115814209,2.1816561222076416,0.22851456701755524
1772883284476382700,8.8853828125,8.251648902893066,2.392822742462158,0.43190449476242065
1772883284492987000,8.90198681640625,8.338987350463867,2.4394826889038086,0.747757077217102
1772883284509593300,8.91859326171875,8.773882865905762,2.4634108543395996,0.7166503667831421
1772883284526191900,8.93519189453125,9.125627517700195,2.2911276817321777,0.6035895347595215
1772883284542808000,8.95180810546875,8.858827590942383,2.1607189178466797,0.37447673082351685
1772883284559389200,8.96838916015625,8.489136695861816,2.1397817134857178,0.16091732680797577
1772883284575996400,8.984996337890625,8.26121997833252,2.2959132194519043,0.08195417374372482
1772883284592604400,9.0016044921875,8.176873207092285,2.4335005283355713,0.07896314561367035
1772883284609204000,9.018203857421875,8.082356452941895,2.7355945110321045,0.44027936458587646
1772883284625819100,9.034819091796875,8.228917121887207,3.1339993476867676,0.50907301902771
1772883284642420200,9.051420166015625,9.119645118713379,3.0442686080932617,0.37447673082351685
1772883284659024600,9.068024658203125,9.839286804199219,2.8809585571289062,0.25423741340637207
1772883284675629800,9.0846298828125,9.561120986938477,2.9210381507873535,0.24167509377002716
1772883284692234200,9.101234130859375,9.18305492401123,3.37687087059021,0.7782655358314514
1772883284708836900,9.1178369140625,9.089137077331543,3.7716867923736572,1.475175142288208
1772883284725465000,9.134465087890625,10.043872833251953,3.6197423934936523,1.425524115562439
