time,seconds_elapsed,z,y,x
1772883275858378200,0.267378173828125,0.1074666976928711,0.09330058097839355,0.08950358629226685
1772883275874992600,0.28399267578125,0.0990152359008789,0.1763913631439209,0.13042160868644714
1772883275891588900,0.3005888671875,0.0957794189453125,0.1901090145111084,0.0648629367351532
1772883275908196900,0.31719677734375,0.14259719848632812,0.20400261878967285,-0.018513083457946777
1772883275924787000,0.333786865234375,0.05643272399902344,0.3301970958709717,-0.06639426946640015
1772883275941403400,0.3504033203125,-0.041832923889160156,0.47279977798461914,-0.027831226587295532
1772883275958008600,0.367008544921875,-0.13840579986572266,0.6335461139678955,-0.06457069516181946
1772883275974614300,0.3836142578125,-0.3226642608642578,0.6886560916900635,-0.17057311534881592
1772883275991223000,0.40022314453125,-0.4814748764038086,0.7240803241729736,-0.2975459396839142
1772883276007825700,0.41682568359375,-0.5857944488525391,0.8004395961761475,-0.3230237066745758
1772883276024427000,0.433427001953125,-0.6866664886474609,0.8622899055480957,-0.29924312233924866
1772883276041034800,0.45003466796875,-0.7580471038818359,0.8563828468322754,-0.2938884198665619
1772883276057621800,0.466621826171875,-0.6392793655395508,0.8397533893585205,-0.23259413242340088
1772883276074233000,0.483233154296875,-0.3470439910888672,0.7787265777587891,-0.19739645719528198
1772883276090848800,0.499848876953125,-0.13842105865478516,0.7180156707763672,-0.22033792734146118
1772883276107452200,0.5164521484375,-0.006449699401855469,0.6593630313873291,-0.22368121147155762
1772883276124061400,0.5330615234375,-0.04537487030029297,0.6395359039306641,-0.15166038274765015
1772883276140662000,0.549662109375,0.02435302734375,0.6614270210266113,-0.021357595920562744
1772883276157269200,0.566269287109375,0.18346309661865234,0.667543888092041,0.10462605953216553
1772883276173877800,0.582877685546875,0.2227344512939453,0.5895006656646729,0.04951214790344238
1772883276190478000,0.59947802734375,-0.07109928131103516,0.5597712993621826,-0.10734131932258606
1772883276207080400,0.61608056640625,-0.40534496307373047,0.7269060611724854,-0.07265830039978027
1772883276223675000,0.6326748046875,-0.5392684936523438,0.9129540920257568,0.07288619875907898
1772883276240281300,0.64928125,-0.4888114929199219,0.9878795146942139,0.16903290152549744
1772883276256884700,0.665884765625,-0.3455171585083008,0.9354434013366699,0.14100432395935059
1772883276273490700,0.68249072265625,-0.15598392486572266,0.8289487361907959,0.04600471258163452
1772883276290096000,0.69909619140625,0.05509662628173828,0.7981357574462891,0.02503901720046997
1772883276306699800,0.71569970703125,0.2545957565307617,0.7262680530548096,0.08621847629547119
1772883276323305200,0.73230517578125,0.5094146728515625,0.8015286922454834,0.15071237087249756
1772883276339911200,0.7489111328125,0.8169803619384766,0.868384599685669,0.16839593648910522
1772883276356527900,0.76552783203125,1.2047948837280273,0.8162679672241211,0.13516217470169067
1772883276373137400,0.782137451171875,1.405604362487793,0.8602340221405029,-0.05051833391189575
1772883276389738200,0.79873828125,1.2742795944213867,1.0262939929962158,-0.1053115725517273
1772883276406343400,0.815343505859375,1.0281543731689453,1.0932891368865967,0.05082648992538452
1772883276422948000,0.831947998046875,1.0219058990478516,0.9868202209472656,0.2777683734893799
1772883276439552800,0.848552734375,1.3963584899902344,0.5361127853393555,0.3184850811958313
1772883276456157000,0.865156982421875,1.8826770782470703,-0.12898755073547363,0.02048492431640625
1772883276472764700,0.8817646484375,2.191859245300293,-0.7008047103881836,-0.43527737259864807
1772883276489367800,0.898367919921875,2.269038200378418,-1.038232445716858,-0.7144314050674438
1772883276505975300,0.914975341796875,2.016707420349121,-1.2345662117004395,-0.7493624091148376
1772883276522579000,0.931578857421875,1.322484016418457,-1.3009250164031982,-0.7358006834983826
1772883276539183900,0.948183837890625,0.4530067443847656,-1.318925380706787,-0.7189046144485474
1772883276555788800,0.964788818359375,-0.2540855407714844,-1.2625114917755127,-0.6692246198654175
1772883276572394000,0.98139404296875,-0.5086650848388672,-1.2731051445007324,-0.6762098073959351
1772883276588997400,0.997997314453125,-0.5068912506103516,-1.3477566242218018,-0.6583214402198792
1772883276605603300,1.014603271484375,-0.32054996490478516,-1.437805414199829,-0.658510684967041
1772883276622216000,1.0312158203125,-0.23462772369384766,-1.4767910242080688,-0.7104613184928894
1772883276638812200,1.047812255859375,-0.1885051727294922,-1.5222606658935547,-0.7960116863250732
1772883276655418000,1.064418212890625,-0.17685222625732422,-1.5641241073608398,-0.7667218446731567
1772883276672053500,1.081053466796875,-0.4013347625732422,-1.4953420162200928,-0.7558123469352722
1772883276688627500,1.09762744140625,-0.6477766036987305,-1.3494220972061157,-0.6215078830718994
1772883276705225500,1.1142255859375,-0.48206138610839844,-1.27955961227417,-0.5092806816101074
1772883276721823200,1.1308232421875,-0.09243106842041016,-1.361034631729126,-0.5379754304885864
1772883276738424800,1.1474248046875,0.24833297729492188,-1.4063091278076172,-0.5949444770812988
1772883276755039200,1.164039306640625,0.5106163024902344,-1.3496605157852173,-0.43542465567588806
1772883276771639300,1.180639404296875,0.4770469665527344,-1.1954593658447266,-0.3064034581184387
1772883276788254500,1.19725439453125,0.08347606658935547,-0.9613363742828369,-0.14948570728302002
1772883276804850400,1.213850341796875,-0.3343324661254883,-0.7940535545349121,-0.12363952398300171
1772883276821454800,1.230454833984375,-0.3798255920410156,-0.7398166656494141,-0.20959848165512085
1772883276838075000,1.247074951171875,-0.14451026916503906,-0.8430931568145752,-0.30543243885040283
1772883276854678000,1.263677978515625,-0.16980934143066406,-0.9238870143890381,-0.46143007278442383
1772883276871290000,1.2802900390625,-0.4384899139404297,-0.92710280418396,-0.5947734713554382
1772883276887891700,1.2968916015625,-0.6864776611328125,-0.8594264984130859,-0.5871463418006897
1772883276904465000,1.31346484375,-0.7706918716430664,-0.7093265056610107,-0.42505037784576416
1772883276921093000,1.330093017578125,-0.7936029434204102,-0.5668444633483887,-0.32660603523254395
1772883276937676800,1.3466767578125,-0.7632837295532227,-0.4921257495880127,-0.3869895339012146
1772883276954311200,1.363311279296875,-0.8487081527709961,-0.4095888137817383,-0.491381973028183
1772883276970914000,1.3799140625,-1.0876893997192383,-0.31257057189941406,-0.5226605534553528
1772883276987513300,1.396513427734375,-1.2291584014892578,-0.11972236633300781,-0.39367687702178955
1772883277004124400,1.41312451171875,-1.231724739074707,0.058054208755493164,-0.2763921618461609
1772883277020726500,1.4297265625,-0.9682149887084961,0.21728825569152832,-0.2632859945297241
1772883277037310500,1.446310546875,-0.6578741073608398,0.2651712894439697,-0.21192646026611328
1772883277053921800,1.462921875,-0.5093297958374023,0.23013663291931152,-0.21992385387420654
1772883277070542300,1.479542236328125,-0.3677682876586914,0.23257088661193848,-0.16696780920028687
1772883277087146200,1.496146240234375,-0.09448909759521484,0.3045024871826172,-0.04580235481262207
1772883277103754200,1.512754150390625,0.2727537155151367,0.3207533359527588,0.06943118572235107
1772883277120356000,1.529356201171875,0.6392526626586914,0.25258970260620117,0.08433926105499268
1772883277136961300,1.545961181640625,0.9043731689453125,0.16170907020568848,-0.03797745704650879
1772883277153552000,1.5625517578125,0.9556722640991211,0.24042773246765137,-0.18078142404556274
1772883277170171600,1.579171630859375,0.7021331787109375,0.400937557220459,-0.19927430152893066
1772883277186775800,1.59577587890625,0.5450067520141602,0.626044750213623,-0.25967133045196533
1772883277203380200,1.612380126953125,0.5191669464111328,0.7900669574737549,-0.45992326736450195
1772883277219975000,1.628974853515625,0.5966663360595703,0.7576127052307129,-0.4597768783569336
1772883277236578300,1.645578369140625,0.5488004684448242,0.5825815200805664,-0.28753113746643066
1772883277253182000,1.662181884765625,0.6485805511474609,0.3195066452026367,-0.06039714813232422
1772883277269793500,1.67879345703125,0.8014154434204102,-0.07059121131896973,0.08121669292449951
1772883277286392300,1.695392333984375,0.8689746856689453,-0.4952542781829834,0.1170281171798706
1772883277302999300,1.711999267578125,0.7940206527709961,-0.8064882755279541,0.0747830867767334
1772883277319604500,1.7286044921875,0.4142875671386719,-1.0321769714355469,-0.03156113624572754
1772883277336195300,1.7451953125,0.03443336486816406,-1.1239904165267944,-0.22086936235427856
1772883277352814000,1.76181396484375,-0.21556854248046875,-1.1111308336257935,-0.36473020911216736
1772883277369416400,1.77841650390625,-0.2030801773071289,-1.2063243389129639,-0.4990518093109131
1772883277386026200,1.795026123046875,-0.054823875427246094,-1.2877120971679688,-0.5882372856140137
1772883277402629000,1.811629150390625,0.19212055206298828,-1.2212932109832764,-0.5005460977554321
1772883277419248600,1.82824853515625,0.40686702728271484,-1.0785136222839355,-0.32012060284614563
1772883277435842800,1.8448427734375,0.38625335693359375,-0.9232791662216187,-0.06633797287940979
1772883277452440800,1.86144091796875,0.128997802734375,-0.7225605249404907,0.23585374653339386
1772883277469058800,1.878058837890625,-0.1971282958984375,-0.5754216909408569,0.49936968088150024
1772883277485670700,1.894670654296875,-0.3267049789428711,-0.5091650485992432,0.58432936668396
1772883277502279000,1.91127880859375,-0.2604846954345703,-0.6399276256561279,0.4266144633293152
1772883277518877400,1.92787744140625,-0.12678241729736328,-0.8377197980880737,0.17638564109802246
1772883277535482600,1.944482666015625,0.046916961669921875,-1.0154154300689697,-0.16335302591323853
1772883277552080000,1.961079833984375,0.13022136688232422,-1.159692645072937,-0.4356996715068817
1772883277568694800,1.97769482421875,-0.023164749145507812,-1.1547307968139648,-0.5377935767173767
1772883277585297400,1.99429736328125,-0.3262147903442383,-0.9822018146514893,-0.4756302833557129
1772883277601910000,2.010909912109375,-0.5227756500244141,-0.6731842756271362,-0.4571470618247986
1772883277618504700,2.027504638671875,-0.5803031921386719,-0.44138824939727783,-0.4784449338912964
1772883277635115500,2.044115478515625,-0.7217197418212891,-0.3300046920776367,-0.49807336926460266
1772883277651699700,2.06069970703125,-0.8634243011474609,-0.14991331100463867,-0.31485414505004883
1772883277668321300,2.0773212890625,-0.9008893966674805,0.08033967018127441,-0.1386953890323639
1772883277684911000,2.0939111328125,-0.959075927734375,0.2504998445510864,-0.008501797914505005
1772883277701516500,2.1105166015625,-1.081991195678711,0.39872097969055176,0.13649356365203857
1772883277718122800,2.127122802734375,-0.9868078231811523,0.49291718006134033,0.25463980436325073
1772883277734730500,2.14373046875,-0.7090005874633789,0.5287730693817139,0.3140476942062378
1772883277751333400,2.16033349609375,-0.43567562103271484,0.46544766426086426,0.2804693579673767
1772883277767944200,2.176944091796875,-0.36930084228515625,0.4775388240814209,0.18112929165363312
1772883277784541700,2.193541748046875,-0.4478006362915039,0.5347118377685547,0.1421980857849121
1772883277801149700,2.210149658203125,-0.32387542724609375,0.6279486417770386,0.14479970932006836
1772883277817769700,2.226769775390625,-0.059561729431152344,0.6553502082824707,0.26451462507247925
1772883277834371600,2.24337158203125,0.24119186401367188,0.6584845781326294,0.28536781668663025
1772883277850952200,2.2599521484375,0.4803304672241211,0.6305570602416992,0.18827037513256073
1772883277867580700,2.27658056640625,0.5331411361694336,0.6378202438354492,0.151099294424057
1772883277884192000,2.29319189453125,0.4530344009399414,0.7358059883117676,0.14707902073860168
1772883277900797200,2.309797119140625,0.20711708068847656,0.8823777437210083,0.1944011002779007
1772883277917399000,2.32639892578125,0.043121337890625,1.0323982238769531,0.24108585715293884
1772883277934003000,2.3430029296875,0.11237430572509766,1.0124614238739014,0.3231000602245331
1772883277950593300,2.35959326171875,0.43308162689208984,0.873206377029419,0.3921158015727997
1772883277967213800,2.3762138671875,0.8388042449951172,0.8343567848205566,0.3761010766029358
1772883277983818000,2.39281787109375,0.9796037673950195,0.902241587638855,0.25260129570961
1772883278000420900,2.4094208984375,1.123457908630371,0.9209049940109253,0.09251701831817627
1772883278017025500,2.426025634765625,1.4790325164794922,0.9963158369064331,0.0018405169248580933
1772883278033632500,2.442632568359375,1.9092073440551758,1.0375914573669434,-0.029247835278511047
1772883278050221600,2.4592216796875,2.509929656982422,0.9246515035629272,0.14818856120109558
1772883278066839800,2.47583984375,2.8323488235473633,0.4951833486557007,0.30137547850608826
1772883278083448000,2.492447998046875,2.631795883178711,-0.17278516292572021,0.353826105594635
1772883278100052700,2.509052734375,2.404475212097168,-0.7668637037277222,0.33568283915519714
1772883278116653300,2.5256533203125,2.335005760192871,-1.1877572536468506,0.11053915321826935
1772883278133279000,2.542279052734375,1.899449348449707,-1.6007232666015625,-0.30127328634262085
1772883278149870600,2.55887060546875,1.003422737121582,-1.8214895725250244,-0.7251200675964355
1772883278166470100,2.57547021484375,-0.11007976531982422,-1.837875247001648,-0.9922351837158203
1772883278183076600,2.59207666015625,-1.0178194046020508,-1.7720885276794434,-1.072199821472168
1772883278199667200,2.608667236328125,-1.686676025390625,-1.70820152759552,-1.0983595848083496
1772883278216283000,2.625282958984375,-2.1415414810180664,-1.4909723997116089,-0.9105064868927002
1772883278232881700,2.641881591796875,-2.2995166778564453,-1.2845405340194702,-0.6062480211257935
1772883278249483500,2.6584833984375,-2.1757354736328125,-1.2209843397140503,-0.4588492512702942
1772883278266092000,2.675092041015625,-1.9342155456542969,-1.2317582368850708,-0.5356869101524353
1772883278282689800,2.691689697265625,-1.6062908172607422,-1.1498489379882812,-0.49510902166366577
1772883278299299300,2.70829931640625,-1.1750211715698242,-1.0722110271453857,-0.40184488892555237
1772883278315920100,2.724920166015625,-0.8593893051147461,-1.1050069332122803,-0.5794366598129272
1772883278332523000,2.74152294921875,-0.6352472305297852,-1.2042348384857178,-1.0276846885681152
1772883278349126100,2.758126220703125,-0.43438053131103516,-1.355135202407837,-1.5002851486206055
1772883278365733000,2.774733154296875,-0.34490108489990234,-1.4193394184112549,-1.8057650327682495
1772883278382337300,2.791337158203125,-0.10457229614257812,-1.3291606903076172,-1.8851288557052612
1772883278398942200,2.807942138671875,0.2723808288574219,-1.177325963973999,-1.5820183753967285
1772883278415547100,2.824547119140625,0.5248126983642578,-0.8967716693878174,-1.1907860040664673
1772883278432153000,2.841153076171875,0.596653938293457,-0.6551891565322876,-0.8717188835144043
1772883278448754000,2.85775390625,0.3096160888671875,-0.463914692401886,-0.6804443597793579
1772883278465362000,2.87436181640625,-0.127532958984375,-0.2460494041442871,-0.4974738657474518
1772883278481969000,2.890968994140625,-0.44867515563964844,-0.06285762786865234,-0.3231293559074402
1772883278498562000,2.90756201171875,-0.7662620544433594,0.10642695426940918,-0.19937866926193237
1772883278515185700,2.924185546875,-0.7808427810668945,0.2956690788269043,-0.030906617641448975
1772883278531781000,2.940781005859375,-0.8419904708862305,0.3315584659576416,0.1304132640361786
1772883278548371500,2.957371337890625,-1.0872430801391602,0.4039576053619385,0.3343331515789032
1772883278564984800,2.97398486328125,-0.8539113998413086,0.7014199495315552,0.487678200006485
1772883278581596000,2.990595947265625,-0.3733243942260742,0.748969554901123,0.6374711990356445
1772883278598205700,3.007205810546875,-0.37073421478271484,0.7800495624542236,0.5686599612236023
1772883278614807600,3.0238076171875,-0.6076211929321289,0.8391326665878296,0.5226044654846191
1772883278631410700,3.04041064453125,-0.43192195892333984,0.932593584060669,0.6341727375984192
1772883278648001000,3.0570009765625,0.1374492645263672,0.8705177307128906,0.8848646283149719
1772883278664619000,3.073618896484375,0.7174043655395508,0.8095945119857788,1.1317596435546875
1772883278681230800,3.09023095703125,1.3233842849731445,0.7732959985733032,1.1132762432098389
1772883278697814300,3.106814208984375,2.073974609375,0.5832955837249756,0.8050909042358398
1772883278714423300,3.12342333984375,2.60296630859375,0.3223710060119629,0.299964040517807
1772883278731029800,3.14002978515625,2.5210914611816406,0.23206496238708496,-0.13768771290779114
1772883278747632600,3.156632568359375,2.2650671005249023,0.43032312393188477,-0.35593825578689575
1772883278764248300,3.173248291015625,2.123793601989746,0.5587350130081177,-0.25271597504615784
1772883278780844000,3.189843994140625,2.350339889526367,0.52195143699646,-0.09433887898921967
1772883278797466600,3.206466552734375,2.6604795455932617,0.23125970363616943,0.01684442162513733
1772883278814068000,3.22306787109375,2.725949287414551,-0.3010447025299072,0.12860825657844543
1772883278830672600,3.239672607421875,2.4548568725585938,-0.8886531591415405,0.18404635787010193
1772883278847268900,3.256268798828125,2.040651321411133,-1.3200665712356567,0.05978929623961449
1772883278863884800,3.272884765625,1.5001707077026367,-1.688019037246704,-0.2033386379480362
1772883278880486100,3.289486083984375,0.6500797271728516,-2.019529342651367,-0.47016605734825134
1772883278897079800,3.306079833984375,-0.3409557342529297,-2.211172580718994,-0.5485129952430725
1772883278913696000,3.322696044921875,-1.2172880172729492,-2.134263277053833,-0.4170991778373718
1772883278930302700,3.339302734375,-1.8750224113464355,-1.9354639053344727,-0.12752020359039307
1772883278946887700,3.3558876953125,-2.1517066955566406,-1.89799165725708,0.3278828561306
1772883278963508500,3.372508544921875,-2.2421231269836426,-1.874292254447937,0.7663576006889343
1772883278980098000,3.38909814453125,-2.2280449867248535,-1.7371244430541992,1.0308455228805542
1772883278996710400,3.40571044921875,-2.1647467613220215,-1.640146255493164,1.1426995992660522
1772883279013314300,3.422314208984375,-2.0631866455078125,-1.6014238595962524,1.0810691118240356
1772883279029919200,3.438919189453125,-1.9130706787109375,-1.6061697006225586,0.9757899641990662
1772883279046511400,3.455511474609375,-1.5073232650756836,-1.6046844720840454,0.7386178970336914
1772883279063129600,3.472129638671875,-0.9840936660766602,-1.6432617902755737,0.5403856039047241
1772883279079734300,3.488734375,-0.6208286285400391,-1.6500945091247559,0.40495598316192627
1772883279096341500,3.505341552734375,-0.3496208190917969,-1.5179600715637207,0.23200517892837524
1772883279112957400,3.52195751953125,-0.22393226623535156,-1.2826433181762695,0.11295157670974731
1772883279129563100,3.538563232421875,-0.2592496871948242,-1.0712664127349854,0.0003134608268737793
1772883279146167000,3.5551669921875,-0.36821460723876953,-0.921729564666748,-0.07015812397003174
1772883279162773000,3.57177294921875,-0.5779132843017578,-0.7645730972290039,-0.10435676574707031
1772883279179374300,3.588374267578125,-0.8077116012573242,-0.5208859443664551,-0.11093896627426147
1772883279195969500,3.604969482421875,-0.8125677108764648,-0.27788984775543213,-0.10684967041015625
1772883279212574200,3.62157421875,-0.7716999053955078,-0.09539306163787842,-0.02199709415435791
1772883279229179100,3.63817919921875,-0.6751251220703125,0.15107858180999756,0.08223211765289307
1772883279245761800,3.65476171875,-0.7167377471923828,0.3857717514038086,0.12723028659820557
1772883279262389500,3.671389404296875,-0.8984975814819336,0.6617323160171509,0.16453194618225098
1772883279278994700,3.68799462890625,-0.9088859558105469,0.8813621997833252,0.35732343792915344
1772883279295616300,3.7046162109375,-0.8450088500976562,1.1239978075027466,0.4523390531539917
1772883279312201200,3.721201171875,-0.6465167999267578,1.219343662261963,0.44152289628982544
1772883279328823300,3.7378232421875,-0.3684806823730469,1.2690995931625366,0.32530248165130615
1772883279345413400,3.754413330078125,-0.02727508544921875,1.2512340545654297,0.2791951894760132
1772883279362033200,3.771033203125,0.2157878875732422,1.2794488668441772,0.21286892890930176
1772883279378637800,3.787637939453125,0.5326089859008789,1.2888226509094238,0.12263935804367065
1772883279395243300,3.8042431640625,0.8906784057617188,1.1560828685760498,0.022178292274475098
1772883279411856600,3.820856689453125,1.1833715438842773,1.0456329584121704,-0.11433792114257812
1772883279428452900,3.837452880859375,1.5467967987060547,1.0694215297698975,-0.3007490038871765
1772883279445041200,3.854041259765625,1.954507827758789,0.9940516948699951,-0.38133352994918823
1772883279461647000,3.870647216796875,2.310028076171875,0.920095682144165,-0.2752072215080261
1772883279478268000,3.887267822265625,2.708131790161133,0.9301388263702393,-0.1348017454147339
1772883279494873000,3.903873046875,3.015413284301758,0.8518515825271606,0.01756572723388672
1772883279511500800,3.920500732421875,3.243475914001465,0.6407308578491211,0.13208884000778198
1772883279528087600,3.937087646484375,3.3294639587402344,0.26638948917388916,0.05676335096359253
1772883279544671700,3.953671630859375,3.266674041748047,-0.3034701347351074,-0.08473607897758484
1772883279561293600,3.97029345703125,2.912428855895996,-0.8316448330879211,-0.2602817118167877
1772883279577897700,3.986897705078125,2.3858118057250977,-1.236697793006897,-0.39769893884658813
1772883279594503400,4.00350341796875,1.877537727355957,-1.4498374462127686,-0.5444412231445312
1772883279611091700,4.020091796875,1.271963119506836,-1.6178747415542603,-0.7206099033355713
1772883279627713000,4.036713134765625,0.44513607025146484,-1.7880942821502686,-0.8234659433364868
1772883279644291000,4.053291015625,-0.6617326736450195,-1.8442378044128418,-0.7470297813415527
1772883279660924000,4.069923828125,-1.6709699630737305,-1.6989898681640625,-0.5781460404396057
1772883279677511700,4.08651171875,-2.278402805328369,-1.521073579788208,-0.3627898693084717
1772883279694120000,4.103119873046875,-2.5289878845214844,-1.3808822631835938,-0.155600905418396
1772883279710724400,4.119724365234375,-2.461627960205078,-1.2233630418777466,0.021992236375808716
1772883279727330000,4.136330078125,-2.1743812561035156,-1.202221393585205,0.1461045891046524
1772883279743922000,4.152921875,-1.7198772430419922,-1.2958006858825684,0.07385861873626709
1772883279760540000,4.169539794921875,-1.394413948059082,-1.4283995628356934,-0.15393121540546417
1772883279777161500,4.186161376953125,-1.2141695022583008,-1.5040796995162964,-0.3776187598705292
1772883279793763300,4.202763427734375,-0.8333053588867188,-1.5317481756210327,-0.5764581561088562
1772883279810369300,4.219369384765625,-0.36900901794433594,-1.590520977973938,-0.78998863697052
1772883279826970400,4.235970458984375,0.0818634033203125,-1.6231873035430908,-1.0807175636291504
1772883279843572700,4.25257275390625,0.3894233703613281,-1.7166591882705688,-1.2636408805847168
1772883279860184300,4.269184326171875,0.5137910842895508,-1.7258691787719727,-1.297696828842163
1772883279876788700,4.285788818359375,0.42505455017089844,-1.6207948923110962,-1.0981473922729492
1772883279893377000,4.302376953125,0.19046592712402344,-1.3796699047088623,-0.7473884224891663
1772883279909963000,4.318962890625,-0.01845264434814453,-1.1688566207885742,-0.44706034660339355
1772883279926603800,4.335603759765625,-0.27922725677490234,-1.0456831455230713,-0.2657044529914856
1772883279943195100,4.352195068359375,-0.5940561294555664,-0.9443382024765015,-0.14199179410934448
1772883279959814100,4.368814208984375,-0.9167308807373047,-0.8105183839797974,-0.06505435705184937
1772883279976418300,4.385418212890625,-1.116032600402832,-0.6166901588439941,-0.03233146667480469
1772883279993023700,4.402023681640625,-1.1397781372070312,-0.44298863410949707,0.07556569576263428
1772883280009617200,4.4186171875,-1.2486705780029297,-0.24344158172607422,0.1519666314125061
1772883280026233900,4.43523388671875,-1.4213390350341797,-0.016228437423706055,0.25366801023483276
1772883280042838000,4.451838134765625,-1.429910659790039,0.1967165470123291,0.4208471179008484
1772883280059444500,4.468444580078125,-1.1751270294189453,0.4248495101928711,0.6115310788154602
1772883280076048600,4.485048583984375,-0.6965456008911133,0.622607946395874,0.7581717371940613
1772883280092653600,4.501653564453125,-0.2568778991699219,0.6930487155914307,0.805127739906311
1772883280109239000,4.518239013671875,-0.012803077697753906,0.7133562564849854,0.7776280641555786
1772883280125864000,4.534864013671875,0.10977554321289062,0.7647980451583862,0.7783892154693604
1772883280142452000,4.551451904296875,0.2640562057495117,0.7709989547729492,0.7284923791885376
1772883280159074300,4.56807421875,0.5693540573120117,0.6420031785964966,0.5969003438949585
1772883280175661600,4.58466162109375,0.9167537689208984,0.46031832695007324,0.4783812165260315
1772883280192270300,4.601270263671875,1.2014169692993164,0.4062645435333252,0.28027456998825073
1772883280208875300,4.617875244140625,1.5422735214233398,0.37943387031555176,0.17346185445785522
1772883280225480200,4.634480224609375,1.7335891723632812,0.3375040292739868,0.04272198677062988
1772883280242084900,4.6510849609375,1.8253250122070312,0.45479607582092285,-0.12249398231506348
1772883280258690800,4.66769091796875,1.8798656463623047,0.6993006467819214,-0.14960265159606934
1772883280275312400,4.6843125,1.7499542236328125,0.8949910402297974,-0.08866620063781738
1772883280291914000,4.7009140625,1.5920848846435547,0.9067614078521729,0.07438403367996216
1772883280308502000,4.717501953125,1.6951894760131836,0.641250729560852,0.2646711468696594
1772883280325124000,4.7341240234375,2.1128358840942383,0.042243123054504395,0.41829735040664673
1772883280341751300,4.750751220703125,2.3586816787719727,-0.614066481590271,0.4513047933578491
1772883280358334000,4.767333984375,2.169487953186035,-1.149146556854248,0.15296781063079834
1772883280374938600,4.783938720703125,1.5245914459228516,-1.5212998390197754,-0.4069384038448334
1772883280391544600,4.800544677734375,0.6277236938476562,-1.7974437475204468,-0.9530050754547119
1772883280408136400,4.817136474609375,-0.4810361862182617,-1.9000298976898193,-1.0897068977355957
1772883280424738800,4.83373876953125,-1.55072021484375,-1.7230926752090454,-0.7887300848960876
1772883280441366300,4.8503662109375,-2.3208775520324707,-1.4101605415344238,-0.3507770895957947
1772883280457948000,4.866947998046875,-2.686553955078125,-1.0650964975357056,-0.005717575550079346
1772883280474569000,4.88356884765625,-2.7243642807006836,-0.8219187259674072,0.2427099347114563
1772883280491174400,4.90017431640625,-2.6146240234375,-0.6874744892120361,0.6012840270996094
1772883280507786000,4.916785888671875,-2.417552947998047,-0.6048927307128906,0.9415566921234131
1772883280524364300,4.9333642578125,-2.043034553527832,-0.5956928730010986,1.147465705871582
1772883280540976600,4.9499765625,-1.429586410522461,-0.6828658580780029,1.0934405326843262
1772883280557594600,4.9665947265625,-0.8247156143188477,-0.9216387271881104,0.8498550653457642
1772883280574198800,4.98319873046875,-0.36005306243896484,-1.1661431789398193,0.5697792172431946
1772883280590804700,4.9998046875,-0.04366302490234375,-1.3710023164749146,0.21456989645957947
1772883280607393000,5.01639306640625,0.2006969451904297,-1.4991697072982788,-0.20974797010421753
1772883280624010200,5.03301025390625,0.4330940246582031,-1.4518237113952637,-0.5996647477149963
1772883280640619300,5.049619384765625,0.5465707778930664,-1.3264658451080322,-0.8341789245605469
1772883280657210600,5.066210693359375,0.37723255157470703,-1.1192429065704346,-0.9495050311088562
1772883280673813000,5.08281298828125,-0.016176223754882812,-0.8966947197914124,-0.9437588453292847
1772883280690421000,5.0994208984375,-0.3521146774291992,-0.623734176158905,-0.7855578660964966
1772883280707025700,5.116025634765625,-0.2678871154785156,-0.3604017496109009,-0.5444464683532715
1772883280723645200,5.132645263671875,-0.1896371841430664,-0.16093653440475464,-0.36711084842681885
1772883280740236000,5.149236083984375,-0.377655029296875,0.03540855646133423,-0.22464025020599365
1772883280756841000,5.165841064453125,-0.6512632369995117,0.2507510185241699,-0.012879490852355957
1772883280773462800,5.182462890625,-0.6632184982299805,0.4755764603614807,0.2249617576599121
1772883280790064600,5.199064697265625,-0.6015958786010742,0.5903923511505127,0.43670499324798584
1772883280806655200,5.2156552734375,-0.7154169082641602,0.720639705657959,0.5882465839385986
1772883280823274800,5.232274658203125,-0.8160867691040039,0.8778955936431885,0.6768875122070312
1772883280839876900,5.248876953125,-0.7100086212158203,1.0006099939346313,0.6219267249107361
1772883280856489700,5.26548974609375,-0.4225015640258789,0.997806191444397,0.5124104619026184
1772883280873101800,5.282101806640625,0.04412364959716797,0.9810371398925781,0.3316059708595276
1772883280889694500,5.298694580078125,0.4761676788330078,0.9625750780105591,0.17447996139526367
1772883280906285300,5.315285400390625,0.6860599517822266,1.0335187911987305,0.12460136413574219
1772883280922901000,5.33190087890625,0.8214883804321289,1.184531807899475,0.2118779420852661
1772883280939497500,5.34849755859375,1.0842304229736328,1.2772619724273682,0.3612671494483948
1772883280956115200,5.365115234375,1.4383478164672852,1.3646633625030518,0.40517622232437134
1772883280972719600,5.3817197265625,1.8016376495361328,1.449808955192566,0.35665857791900635
1772883280989325300,5.3983251953125,2.251919746398926,1.3801052570343018,0.21058589220046997
1772883281005930000,5.414929931640625,2.766040802001953,1.2050018310546875,0.12187063694000244
1772883281022541600,5.43154150390625,3.1167144775390625,0.9732367396354675,0.044108569622039795
1772883281039144000,5.44814404296875,3.222562789916992,0.6587012410163879,-0.07197177410125732
1772883281055733000,5.46473291015625,3.171969413757324,0.3228704333305359,-0.2348320484161377
1772883281072350000,5.481349853515625,2.9423131942749023,-0.05050361156463623,-0.20374327898025513
1772883281088955100,5.497955078125,2.44350528717041,-0.34284013509750366,-0.10515666007995605
1772883281105559800,5.514559814453125,1.8217191696166992,-0.51749187707901,-0.10080099105834961
1772883281122161700,5.53116162109375,1.4663381576538086,-0.7294625639915466,-0.19358712434768677
1772883281138775600,5.547775634765625,1.3608970642089844,-1.0501493215560913,-0.27280014753341675
1772883281155364600,5.564364501953125,1.1030826568603516,-1.3753958940505981,-0.23927831649780273
1772883281171966200,5.58096630859375,0.46241188049316406,-1.6224005222320557,-0.12189513444900513
1772883281188572000,5.597572021484375,-0.32391929626464844,-1.7218780517578125,0.009083271026611328
1772883281205176800,5.6141767578125,-1.0339908599853516,-1.7444086074829102,0.03431904315948486
1772883281221781800,5.63078173828125,-1.675793170928955,-1.7613025903701782,-0.01898813247680664
1772883281238386700,5.64738671875,-2.163057327270508,-1.7361114025115967,0.0218198299407959
1772883281254995700,5.66399560546875,-2.4906773567199707,-1.6995551586151123,0.04003232717514038
1772883281271610400,5.6806103515625,-2.5353026390075684,-1.708892583847046,-0.004081904888153076
1772883281288215600,5.697215576171875,-2.3143997192382812,-1.678938627243042,-0.16513073444366455
1772883281304824000,5.713823974609375,-1.8902788162231445,-1.68065345287323,-0.41357630491256714
1772883281321425700,5.73042578125,-1.4747648239135742,-1.7291921377182007,-0.6307826638221741
1772883281338026800,5.74702685546875,-1.195298194885254,-1.7005189657211304,-0.7010728716850281
1772883281354640000,5.763639892578125,-0.9526786804199219,-1.5390737056732178,-0.7480738759040833
1772883281371235000,5.780235107421875,-0.5493965148925781,-1.4662798643112183,-0.8067745566368103
1772883281387851000,5.79685107421875,-0.1931896209716797,-1.456518292427063,-0.8720780611038208
1772883281404451000,5.813451171875,0.11606597900390625,-1.4278779029846191,-0.9526071548461914
1772883281421056300,5.83005615234375,0.2758665084838867,-1.3313084840774536,-1.003293514251709
1772883281437659400,5.846659423828125,0.1380901336669922,-1.1253178119659424,-1.0054025650024414
1772883281454251300,5.863251220703125,-0.24042987823486328,-0.8820140361785889,-0.8464533090591431
1772883281470870500,5.87987060546875,-0.45688724517822266,-0.6260333061218262,-0.6331542134284973
1772883281487475700,5.896475830078125,-0.5204439163208008,-0.4529823064804077,-0.4699036478996277
1772883281504076300,5.913076171875,-0.5684890747070312,-0.2300649881362915,-0.34503769874572754
1772883281520673800,5.929673828125,-0.728215217590332,-0.017232894897460938,-0.22413867712020874
1772883281537287200,5.946287109375,-1.0741443634033203,0.2080845832824707,-0.09176188707351685
1772883281553900000,5.962900146484375,-1.1319847106933594,0.5095236301422119,0.05250847339630127
1772883281570500600,5.97950048828125,-1.0020875930786133,0.7183314561843872,0.16656213998794556
1772883281587106000,5.99610595703125,-1.0449848175048828,0.8725858926773071,0.18457114696502686
1772883281603694300,6.0126943359375,-1.108271598815918,1.0386571884155273,0.20514199137687683
1772883281620312300,6.029312255859375,-0.7937183380126953,1.1827949285507202,0.3569103479385376
1772883281636904200,6.045904296875,-0.2962150573730469,1.2071166038513184,0.42115944623947144
1772883281653513200,6.06251318359375,0.113555908203125,1.1091738939285278,0.28045862913131714
1772883281670117600,6.07911767578125,0.6494779586791992,0.9844875335693359,0.20711305737495422
1772883281686722600,6.09572265625,1.0571575164794922,0.8584901094436646,0.23355360329151154
1772883281703327200,6.1123271484375,1.2787342071533203,0.7560155391693115,0.12185169756412506
1772883281719933200,6.12893310546875,1.4674882888793945,0.6713635921478271,-0.0757017582654953
1772883281736537600,6.14553759765625,1.7865705490112305,0.5811378955841064,-0.25130391120910645
1772883281753160000,6.162159912109375,2.1666746139526367,0.6008377075195312,-0.31743913888931274
1772883281769761000,6.178760986328125,2.173172950744629,0.6036763191223145,-0.26712316274642944
1772883281786366700,6.19536669921875,2.2717342376708984,0.5844621658325195,-0.2963779866695404
1772883281802972000,6.211971923828125,2.6193952560424805,0.45058417320251465,-0.32910385727882385
1772883281819570200,6.228570068359375,2.9488134384155273,0.23793482780456543,-0.2149195522069931
1772883281836186400,6.245186279296875,2.8016767501831055,-0.12981796264648438,-0.15287654101848602
1772883281852788700,6.261788818359375,2.2838315963745117,-0.5567924976348877,-0.0185890793800354
1772883281869391400,6.278391357421875,1.5775251388549805,-0.7858998775482178,0.2648049294948578
1772883281885996800,6.294996826171875,0.9660968780517578,-0.896641731262207,0.569796085357666
1772883281902585300,6.31158544921875,0.8861732482910156,-0.965959906578064,0.6472117900848389
1772883281919200300,6.3282001953125,0.9199934005737305,-1.210274338722229,0.5881691575050354
1772883281935814400,6.344814453125,0.669189453125,-1.6037440299987793,0.5000090003013611
1772883281952435500,6.361435546875,0.1810741424560547,-1.8895097970962524,0.5075738430023193
1772883281969021400,6.378021484375,-0.7091598510742188,-1.7613418102264404,0.6408466696739197
1772883281985627100,6.394627197265625,-1.346944808959961,-1.431232213973999,0.7957863807678223
1772883282002215400,6.41121533203125,-1.528402328491211,-1.1290550231933594,1.0106544494628906
1772883282018837000,6.4278369140625,-1.3848767280578613,-0.8727450370788574,1.1503938436508179
1772883282035443700,6.444443603515625,-1.031538963317871,-0.7840187549591064,1.0435460805892944
1772883282052045800,6.4610458984375,-0.6134033203125,-0.9701659679412842,0.7741261720657349
1772883282068668700,6.477668701171875,-0.2101573944091797,-1.2434253692626953,0.6206764578819275
1772883282085261300,6.49426123046875,0.08659553527832031,-1.370359182357788,0.5409426689147949
1772883282101844500,6.510844482421875,0.1402444839477539,-1.2139966487884521,0.5114830732345581
1772883282118474000,6.527473876953125,-0.03795909881591797,-1.0284152030944824,0.37741512060165405
1772883282135055000,6.54405517578125,-0.23368549346923828,-0.9958510398864746,0.14698350429534912
1772883282151652000,6.560652099609375,-0.22580623626708984,-0.9878835678100586,-0.01666867733001709
1772883282168254500,6.57725439453125,-0.16771316528320312,-1.0172019004821777,-0.14724653959274292
1772883282184873500,6.59387353515625,-0.1902027130126953,-1.0082955360412598,-0.23902809619903564
1772883282201478100,6.61047802734375,-0.5305023193359375,-0.8832018375396729,-0.31198322772979736
1772883282218084400,6.62708447265625,-1.011204719543457,-0.6901192665100098,-0.43590718507766724
1772883282234688500,6.6436884765625,-1.287917137145996,-0.46802854537963867,-0.30368319153785706
1772883282251311000,6.66031103515625,-1.0700349807739258,-0.40715742111206055,0.061872392892837524
1772883282267912200,6.676912109375,-0.8116674423217773,-0.3294358253479004,0.18691560626029968
1772883282284517400,6.693517333984375,-0.5943307876586914,-0.190934419631958,0.16456526517868042
1772883282301109500,6.710109619140625,-0.5784854888916016,-0.20381402969360352,0.005730032920837402
1772883282317728300,6.726728271484375,-0.9071693420410156,-0.19961881637573242,-0.20821504294872284
1772883282334328600,6.74332861328125,-1.3882675170898438,-0.012346982955932617,-0.34170103073120117
1772883282350941400,6.75994140625,-1.4811115264892578,0.1971290111541748,-0.2979135811328888
1772883282367542300,6.776542236328125,-0.9967856407165527,0.30514955520629883,-0.14377132058143616
1772883282384147700,6.793147705078125,-0.7071428298950195,0.26754307746887207,-0.06436359882354736
1772883282400761300,6.80976123046875,-0.8207178115844727,0.35919690132141113,-0.06216108798980713
1772883282417358000,6.826358154296875,-0.8611545562744141,0.5610446929931641,-0.08762362599372864
1772883282433961500,6.84296142578125,-0.5896368026733398,0.5788383483886719,-0.08698374032974243
1772883282450568700,6.859568603515625,-0.3077859878540039,0.5122146606445312,-0.17606061697006226
1772883282467176700,6.8761767578125,-0.25023365020751953,0.5836746692657471,-0.18520545959472656
1772883282483777800,6.89277783203125,-0.36889171600341797,0.6869356632232666,-0.12588980793952942
1772883282500356400,6.9093564453125,-0.40634727478027344,0.7300019264221191,-0.1163448691368103
1772883282516988400,6.925988525390625,-0.13312816619873047,0.6803884506225586,-0.08043724298477173
1772883282533588700,6.942588623046875,0.27806758880615234,0.5637528896331787,0.0127030611038208
1772883282550201900,6.959201904296875,0.7311286926269531,0.5854065418243408,-0.044377684593200684
1772883282566806800,6.975806884765625,1.0756206512451172,0.5467097759246826,-0.08383810520172119
1772883282583408000,6.992408203125,1.5044021606445312,0.5440688133239746,-0.1184036135673523
1772883282600008700,7.0090087890625,1.9819374084472656,0.799426794052124,-0.16422361135482788
1772883282616601300,7.025601318359375,2.0687761306762695,0.8406333923339844,0.03145545721054077
1772883282633209300,7.042209228515625,1.6278419494628906,0.7138938903808594,0.05537736415863037
1772883282649814800,7.058814697265625,0.9466619491577148,0.45970988273620605,0.14702600240707397
1772883282666419700,7.075419677734375,0.7569799423217773,0.17930030822753906,0.4137747287750244
1772883282683024600,7.092024658203125,1.2691650390625,-0.2079637050628662,0.5601810216903687
1772883282699619000,7.108619140625,1.8839855194091797,-0.7653789520263672,0.4882781505584717
1772883282716235000,7.125235107421875,2.0337400436401367,-1.3324694633483887,0.2613716721534729
1772883282732839000,7.1418388671875,1.6818742752075195,-1.672753095626831,0.04970890283584595
1772883282749463000,7.158463134765625,0.8822040557861328,-1.8749535083770752,-0.17860281467437744
1772883282766083300,7.175083251953125,-0.11936759948730469,-1.8214471340179443,-0.5240716338157654
1772883282782668500,7.19166845703125,-0.9227848052978516,-1.673480749130249,-0.7201158404350281
1772883282799274500,7.2082744140625,-1.17706298828125,-1.5157949924468994,-0.7433892488479614
1772883282815882200,7.22488232421875,-0.8586931228637695,-1.489311933517456,-0.4649035334587097
1772883282832484900,7.24148486328125,-0.4554605484008789,-1.4653387069702148,-0.22922611236572266
1772883282849088000,7.258087890625,-0.26926422119140625,-1.4026217460632324,-0.21208858489990234
1772883282865677000,7.274677001953125,-0.27742862701416016,-1.3784823417663574,-0.21747422218322754
1772883282882298600,7.291298583984375,-0.5389766693115234,-1.2792277336120605,-0.17315208911895752
1772883282898895600,7.3078955078125,-0.8338699340820312,-1.0864272117614746,-0.02636861801147461
1772883282915509500,7.324509521484375,-0.6841650009155273,-0.9353146553039551,0.010196506977081299
1772883282932114200,7.3411142578125,-0.13709640502929688,-0.986328125,-0.0426296591758728
1772883282948718300,7.35771826171875,0.3918304443359375,-1.1006107330322266,-0.09280943870544434
1772883282965307100,7.37430712890625,0.4780149459838867,-1.0933616161346436,-0.08905529975891113
1772883282981929200,7.39092919921875,0.008225440979003906,-0.9716784954071045,-0.10587519407272339
1772883282998541600,7.40754150390625,-0.41565513610839844,-0.7476434707641602,-0.33551692962646484
1772883283015139300,7.424139404296875,-0.5962533950805664,-0.6440181732177734,-0.49226367473602295
1772883283031748600,7.44074853515625,-0.7412042617797852,-0.568138599395752,-0.5455633401870728
1772883283048344600,7.457344482421875,-0.8018198013305664,-0.5222764015197754,-0.5405498743057251
1772883283064954000,7.4739541015625,-0.8740901947021484,-0.44324183464050293,-0.47149914503097534
1772883283081543200,7.490543212890625,-0.8291950225830078,-0.27965354919433594,-0.39628076553344727
1772883283098152200,7.507152099609375,-0.7239360809326172,-0.15785431861877441,-0.4300152361392975
1772883283114752500,7.52375244140625,-0.7747650146484375,-0.07240414619445801,-0.6171940565109253
1772883283131360800,7.54036083984375,-0.9722347259521484,0.0390009880065918,-0.7599290609359741
1772883283147965700,7.556965576171875,-1.211674690246582,0.23573827743530273,-0.7314081788063049
1772883283164570400,7.5735703125,-1.3094596862792969,0.4897031784057617,-0.5689570903778076
1772883283181162800,7.590162841796875,-1.0352611541748047,0.6699578762054443,-0.4416782557964325
1772883283197794600,7.606794677734375,-0.5112342834472656,0.7441027164459229,-0.3849067687988281
1772883283214385700,7.6233857421875,-0.12513446807861328,0.8107073307037354,-0.2745853662490845
1772883283230986200,7.639986328125,0.0628204345703125,0.872612476348877,-0.18292099237442017
1772883283247614000,7.656614013671875,0.2555856704711914,0.8455352783203125,-0.17219889163970947
1772883283264202000,7.673201904296875,0.4969921112060547,0.7827208042144775,-0.1728365421295166
1772883283280807000,7.689806884765625,0.6421394348144531,0.7130076885223389,-0.12059664726257324
1772883283297423000,7.706423095703125,0.7939786911010742,0.7505931854248047,-0.01893317699432373
1772883283314030300,7.7230302734375,1.100235939025879,0.7199511528015137,0.07080733776092529
1772883283330630700,7.739630615234375,1.4424514770507812,0.7903673648834229,0.09634339809417725
1772883283347243800,7.756243896484375,1.5621395111083984,0.7710175514221191,0.13476812839508057
1772883283363825400,7.772825439453125,1.4671106338500977,0.6327157020568848,0.10841524600982666
1772883283380479200,7.789479248046875,1.409926414489746,0.6580929756164551,-0.055884361267089844
1772883283397038300,7.806038330078125,1.2957639694213867,0.6404142379760742,0.11372065544128418
1772883283413660000,7.822659912109375,1.108407974243164,0.484158992767334,0.43135249614715576
1772883283430260700,7.8392607421875,1.0304145812988281,0.2289731502532959,0.7817709445953369
1772883283446874000,7.8558740234375,1.034684181213379,-0.10387492179870605,1.1254355907440186
1772883283463475000,7.872474853515625,0.8806905746459961,-0.345320463180542,1.3666967153549194
1772883283480056000,7.88905615234375,0.4324207305908203,-0.5318100452423096,1.3918954133987427
1772883283496681200,7.90568115234375,-0.01886272430419922,-0.6594138145446777,1.2718353271484375
1772883283513290800,7.922290771484375,-0.4976034164428711,-0.7645959854125977,1.0717270374298096
1772883283529891000,7.93889111328125,-0.7049436569213867,-0.8159022331237793,0.8012471199035645
1772883283546504200,7.955504150390625,-0.7584257125854492,-0.7753798961639404,0.6763724088668823
1772883283563090200,7.972090087890625,-0.9082155227661133,-0.7081871032714844,0.6563422679901123
1772883283579695900,7.98869580078125,-0.9789676666259766,-0.6051449775695801,0.7532564401626587
1772883283596300500,8.005300537109376,-0.8567171096801758,-0.6570088863372803,0.8182387351989746
1772883283612906800,8.02190673828125,-0.7283163070678711,-0.7955474853515625,0.7835407257080078
1772883283629508900,8.0385087890625,-0.8125190734863281,-0.8407204151153564,0.7716823816299438
1772883283646120000,8.055119873046875,-0.993499755859375,-0.8208892345428467,0.7214764356613159
1772883283662721800,8.0717216796875,-0.791773796081543,-0.8372423648834229,0.5992299318313599
1772883283679333400,8.08833349609375,-0.37885093688964844,-0.9000380039215088,0.45742201805114746
1772883283695931600,8.104931640625,-0.08541679382324219,-0.8654427528381348,0.2803720235824585
1772883283712537300,8.121537353515626,-0.09102344512939453,-0.72721266746521,0.19179117679595947
1772883283729159700,8.13815966796875,-0.4521198272705078,-0.46403980255126953,0.21969330310821533
1772883283745760300,8.15476025390625,-0.8432960510253906,-0.1718273162841797,0.18273043632507324
1772883283762349000,8.17134912109375,-0.9873342514038086,0.00582575798034668,0.0627206563949585
1772883283778971600,8.1879716796875,-0.9288969039916992,0.04840803146362305,-0.15163230895996094
1772883283795581700,8.204581787109374,-0.9110136032104492,0.09690713882446289,-0.3308027982711792
1772883283812175000,8.221175048828124,-0.9359407424926758,0.20899081230163574,-0.2615051865577698
1772883283828790000,8.2377900390625,-0.8226823806762695,0.3662543296813965,-0.07601499557495117
1772883283845387300,8.25438720703125,-0.7145071029663086,0.49895381927490234,0.029276609420776367
1772883283861996000,8.27099609375,-0.7701950073242188,0.6490726470947266,0.0024788379669189453
1772883283878594600,8.287594482421875,-0.9417829513549805,0.8182499408721924,-0.12017250061035156
1772883283895212000,8.3042119140625,-0.9724693298339844,0.9264874458312988,-0.28158581256866455
1772883283911815400,8.3208154296875,-0.8288946151733398,0.935408353805542,-0.36670607328414917
1772883283928412700,8.33741259765625,-0.6205768585205078,1.0026509761810303,-0.44148004055023193
1772883283945025500,8.354025634765625,-0.48160552978515625,1.084911584854126,-0.5193091630935669
1772883283961610000,8.37060986328125,-0.3676109313964844,1.099663496017456,-0.5418362617492676
1772883283978232000,8.387232177734376,-0.18039226531982422,1.0259673595428467,-0.5537729859352112
1772883283994833400,8.40383349609375,-0.040360450744628906,0.922029972076416,-0.5411545038223267
1772883284011444200,8.4204443359375,0.1363372802734375,0.7010347843170166,-0.36194783449172974
1772883284028042500,8.43704248046875,0.7930145263671875,0.4504685401916504,-0.16628313064575195
1772883284044655600,8.453655517578126,1.9066143035888672,0.3795502185821533,-0.15782225131988525
1772883284061256700,8.470256591796876,2.6848154067993164,0.32003140449523926,-0.16278481483459473
1772883284077861400,8.486861328125,2.82818603515625,0.48295116424560547,-0.05790746212005615
1772883284094449400,8.503449462890625,2.396233558654785,0.6957507133483887,-0.0913240909576416
1772883284111058400,8.520058349609375,1.9697246551513672,0.5839860439300537,-0.07497024536132812
1772883284127658800,8.53665869140625,2.123842239379883,0.21262216567993164,-0.11312401294708252
1772883284144272400,8.5532724609375,2.6862659454345703,-0.22834324836730957,-0.12501031160354614
1772883284160877600,8.569877685546874,3.105393409729004,-0.6753830909729004,-0.003648042678833008
1772883284177478700,8.586478759765624,3.19976806640625,-1.1366127729415894,0.0948798656463623
1772883284194083300,8.603083251953125,2.758479118347168,-1.4704023599624634,0.054818153381347656
1772883284210688300,8.619688232421876,1.8437299728393555,-1.5497955083847046,-0.06262677907943726
1772883284227313400,8.6363134765625,0.7567405700683594,-1.4121899604797363,-0.17753052711486816
1772883284243909400,8.652909423828126,-0.21084117889404297,-1.2812882661819458,-0.28904592990875244
1772883284260536600,8.66953662109375,-0.8988437652587891,-1.2226896286010742,-0.3991053104400635
1772883284277122800,8.686122802734374,-1.0873832702636719,-1.1799935102462769,-0.4393935799598694
1772883284293726700,8.702726806640625,-0.9752779006958008,-1.0946385860443115,-0.46771353483200073
1772883284310329600,8.71932958984375,-0.9662618637084961,-1.0664184093475342,-0.4065535068511963
1772883284326940400,8.7359404296875,-1.0237417221069336,-1.0017434358596802,-0.38546180725097656
1772883284343542800,8.752542724609375,-0.8939123153686523,-0.9477524757385254,-0.39868634939193726
1772883284360123100,8.769123046875,-0.7213582992553711,-0.9911859035491943,-0.4809897541999817
1772883284376753000,8.7857529296875,-0.6898908615112305,-1.0238964557647705,-0.5118870735168457
1772883284393357300,8.802357421875,-0.5777759552001953,-0.9471232891082764,-0.4456215500831604
1772883284409966000,8.818966064453125,-0.2810859680175781,-0.9450345039367676,-0.4478626847267151
1772883284426561300,8.835561279296876,-0.013604164123535156,-0.9240775108337402,-0.6766239404678345
1772883284443176000,8.852176025390625,-0.23647212982177734,-0.8639107942581177,-0.7654387950897217
1772883284459791600,8.86879150390625,-0.7415914535522461,-0.6099891662597656,-0.6513372659683228
1772883284476382700,8.8853828125,-1.0717649459838867,-0.3787345886230469,-0.46347782015800476
1772883284492987000,8.90198681640625,-1.0680484771728516,-0.2880277633666992,-0.18271154165267944
1772883284509593300,8.91859326171875,-0.7446413040161133,-0.2488858699798584,-0.12921357154846191
1772883284526191900,8.93519189453125,-0.35974693298339844,-0.37712574005126953,-0.23739337921142578
1772883284542808000,8.95180810546875,-0.445831298828125,-0.5397911071777344,-0.451530396938324
1772883284559389200,8.96838916015625,-0.7716159820556641,-0.6234560012817383,-0.6818002462387085
1772883284575996400,8.984996337890625,-1.0271434783935547,-0.5372490882873535,-0.7887821197509766
1772883284592604400,9.0016044921875,-1.1603717803955078,-0.40805482864379883,-0.7985255122184753
1772883284609204000,9.018203857421875,-1.2425317764282227,-0.16105055809020996,-0.52101731300354
1772883284625819100,9.034819091796875,-1.1976470947265625,0.21602439880371094,-0.34350478649139404
1772883284642420200,9.051420166015625,-0.5069313049316406,0.27703404426574707,-0.4240546226501465
1772883284659024600,9.068024658203125,0.2450246810913086,0.12246274948120117,-0.5250656008720398
1772883284675629800,9.0846298828125,0.27190589904785156,0.0704960823059082,-0.5707597732543945
1772883284692234200,9.101234130859375,-0.055191993713378906,0.33871006965637207,-0.20427513122558594
1772883284708836900,9.1178369140625,-0.22345352172851562,0.7350442409515381,0.43963801860809326
1772883284725465000,9.134465087890625,0.4401369094848633,0.7375388145446777,0.5637758374214172
