time,seconds_elapsed,z,y,x
1772883275733817000,0.142817138671875,-0.19868391752243042,-0.1287398487329483,-0.22128593921661377
1772883275750434600,0.1594345703125,-0.20861047506332397,-0.04612032696604729,-0.21762074530124664
1772883275767041500,0.17604150390625,-0.22296582162380219,0.02428189292550087,-0.19333885610103607
1772883275783643100,0.19264306640625,-0.21410827338695526,0.05650503560900688,-0.18096883594989777
1772883275800264700,0.2092646484375,-0.17287486791610718,0.005039638374000788,-0.19226983189582825
1772883275816891100,0.22589111328125,-0.13148874044418335,-0.13209961354732513,-0.19792033731937408
1772883275833473000,0.24247314453125,-0.09926560521125793,-0.2428189367055893,-0.19318613409996033
1772883275850071800,0.25907177734375,-0.0705549344420433,-0.2825251817703247,-0.16584990918636322
1772883275866670600,0.275670654296875,-0.058184914290905,-0.3223841190338135,-0.14095716178417206
1772883275883271200,0.292271240234375,-0.056352317333221436,-0.30054569244384766,-0.1739438772201538
1772883275899893800,0.308893798828125,-0.03375030308961868,-0.22189679741859436,-0.22617286443710327
1772883275916483600,0.325483642578125,0.011759156361222267,-0.09544769674539566,-0.2538145184516907
1772883275933107700,0.342107666015625,0.05009094998240471,-0.02015855349600315,-0.25854870676994324
1772883275949697500,0.358697509765625,0.05375614017248154,0.006261368747800589,-0.22052235901355743
1772883275966316300,0.37531640625,0.04459316283464432,-0.013897184282541275,-0.164170041680336
1772883275982903800,0.39190380859375,0.048716504126787186,-0.03481931984424591,-0.11728613078594208
1772883275999506400,0.40850634765625,0.05711590126156807,-0.06001751124858856,-0.08781187981367111
1772883276016110300,0.4251103515625,0.048105638474226,-0.07712173461914062,-0.09056077152490616
1772883276032732700,0.441732666015625,0.03039054572582245,-0.04856378585100174,-0.14278975129127502
1772883276049333500,0.45833349609375,0.01970040425658226,-0.022907447069883347,-0.2151772826910019
1772883276065943000,0.474943115234375,0.003512475173920393,-0.020005837082862854,-0.25244006514549255
1772883276082531300,0.49153125,-0.010690141469240189,-0.024434609338641167,-0.2252565622329712
1772883276099161600,0.50816162109375,-0.005039638374000788,-0.02015855349600315,-0.17516560852527618
1772883276115740000,0.524739990234375,0.015118914656341076,0.019547687843441963,-0.12767083942890167
1772883276132365600,0.541365478515625,0.03649919852614403,0.05451972410082817,-0.11331550031900406
1772883276148964600,0.557964599609375,0.03848451003432274,0.0809396430850029,-0.07040221989154816
1772883276165574400,0.574574462890625,0.030543262138962746,0.10186178237199783,0.015271631069481373
1772883276182152000,0.59115185546875,0.06520986557006836,0.15974126756191254,0.13286319375038147
1772883276198779400,0.607779296875,0.12797626852989197,0.1690569519996643,0.19624045491218567
1772883276215364600,0.624364501953125,0.1661553531885147,0.13607023656368256,0.18051068484783173
1772883276231982000,0.640982177734375,0.1595885455608368,0.08735372871160507,0.1586722433567047
1772883276248582700,0.657582763671875,0.13973543047904968,-0.011759156361222267,0.14355333149433136
1772883276265191400,0.67419140625,0.14019356667995453,-0.08231408894062042,0.13805554807186127
1772883276281793800,0.690793701171875,0.16722436249256134,-0.1088867336511612,0.10415252298116684
1772883276298393600,0.7073935546875,0.19257527589797974,-0.10399980843067169,0.05543602257966995
1772883276315006500,0.72400634765625,0.21670444309711456,-0.07895433157682419,0.018325956538319588
1772883276331605200,0.740605224609375,0.21731531620025635,-0.06291911751031876,0.017562376335263252
1772883276348221400,0.757221435546875,0.20845776796340942,-0.1059851199388504,0.04459316283464432
1772883276364836400,0.77383642578125,0.21120665967464447,-0.11682797968387604,0.10720685124397278
1772883276381424400,0.79042431640625,0.24373523890972137,-0.026419922709465027,0.14416420459747314
1772883276398040800,0.807040771484375,0.25014930963516235,0.08460483700037003,0.08170322328805923
1772883276414637300,0.82363720703125,0.19608774781227112,0.14553864300251007,-0.09407325088977814
1772883276431286500,0.84028662109375,0.06673702597618103,0.11820242553949356,-0.2970332205295563
1772883276447863600,0.856863525390625,-0.058184914290905,0.055283304303884506,-0.3877467215061188
1772883276464452400,0.873452392578125,-0.10048733651638031,0.005497787147760391,-0.31459560990333557
1772883276481056000,0.890055908203125,-0.04841107130050659,-0.032070424407720566,-0.12217304855585098
1772883276497667800,0.906667724609375,0.04153883829712868,-0.008399397134780884,0.12721268832683563
1772883276514275000,0.923275146484375,0.1215621829032898,0.07391469180583954,0.3822489380836487
1772883276530879500,0.93987939453125,0.1846340149641037,0.1417207419872284,0.5309945940971375
1772883276547489000,0.956489013671875,0.24083362519741058,0.20723603665828705,0.5600107312202454
1772883276564087800,0.973087890625,0.26190847158432007,0.1837177276611328,0.5279402732849121
1772883276580685000,0.98968505859375,0.266642689704895,0.1189660057425499,0.5059491395950317
1772883276597299000,1.006298828125,0.2718350291252136,0.0835358202457428,0.4964807331562042
1772883276613908700,1.02290869140625,0.28435778617858887,0.06643159687519073,0.5138903856277466
1772883276630512000,1.03951220703125,0.2974913716316223,0.01114829070866108,0.5229006409645081
1772883276647111700,1.056111572265625,0.3211624026298523,-0.07467827945947647,0.5222898125648499
1772883276663720700,1.072720703125,0.33628132939338684,-0.08689557760953903,0.5181664228439331
1772883276680329700,1.089329833984375,0.33399057388305664,-0.11804971098899841,0.4079052805900574
1772883276696929800,1.1059296875,0.294437050819397,-0.15622878074645996,0.2018909603357315
1772883276713519900,1.122519775390625,0.23151792585849762,-0.18157969415187836,0.01542434748262167
1772883276730128100,1.139128173828125,0.20051652193069458,-0.16691893339157104,-0.09758572280406952
1772883276746729200,1.155729248046875,0.20463985204696655,-0.15424346923828125,-0.1440114825963974
1772883276763339300,1.17233935546875,0.19853121042251587,-0.06811147183179855,-0.11575896292924881
1772883276779933400,1.188933349609375,0.17837265133857727,0.04734205827116966,-0.08888089656829834
1772883276796546600,1.205546630859375,0.1241583600640297,0.13790282607078552,-0.1319468915462494
1772883276813151700,1.22215185546875,0.058795779943466187,0.17898350954055786,-0.21762074530124664
1772883276829757700,1.2387578125,0.003512475173920393,0.1420261710882187,-0.24862214922904968
1772883276846378000,1.2553779296875,-0.009773843921720982,0.1690569519996643,-0.14874568581581116
1772883276862993400,1.271993408203125,0.01572977937757969,0.12828169763088226,-0.03222314268350601
1772883276879585500,1.28858544921875,0.05619960278272629,0.058948494493961334,0.02886338345706463
1772883276896196400,1.3051962890625,0.08460483700037003,0.03497203439474106,0.04337143152952194
1772883276912789000,1.3217890625,0.08429940044879913,0.07391469180583954,0.058337632566690445
1772883276929399000,1.33839892578125,0.06291911751031876,0.10216721147298813,0.09560041129589081
1772883276946007800,1.3550078125,0.060475658625364304,0.08750644326210022,0.1667662113904953
1772883276962614800,1.37161474609375,0.08124507963657379,0.06062837690114975,0.22999076545238495
1772883276979204400,1.388204345703125,0.10781771689653397,0.003512475173920393,0.23915374279022217
1772883276995821000,1.404821044921875,0.08750644326210022,-0.10201449692249298,0.21135938167572021
1772883277012421600,1.421421630859375,0.036041051149368286,-0.20311269164085388,0.1647808998823166
1772883277029040400,1.438040283203125,-0.016798794269561768,-0.26710084080696106,0.15729780495166779
1772883277045625600,1.45462548828125,-0.07024950534105301,-0.34284812211990356,0.17302757501602173
1772883277062230000,1.47122998046875,-0.09712757170200348,-0.423329621553421,0.1716531366109848
1772883277078817300,1.4878173828125,-0.12186761945486069,-0.48976120352745056,0.12721268832683563
1772883277095450600,1.50445068359375,-0.16890424489974976,-0.5056437253952026,0.045204028487205505
1772883277112053800,1.5210537109375,-0.22540926933288574,-0.4389066696166992,-0.024129176512360573
1772883277128657000,1.537656982421875,-0.26862800121307373,-0.342695415019989,-0.038637228310108185
1772883277145282600,1.554282470703125,-0.26862800121307373,-0.2148718535900116,0.01191187184303999
1772883277161855500,1.57085546875,-0.2525927722454071,-0.08429940044879913,0.08368854224681854
1772883277178459100,1.587459228515625,-0.2580905556678772,-0.06994406878948212,0.07757988572120667
1772883277195079200,1.6040791015625,-0.29565876722335815,-0.16600263118743896,-0.007635815534740686
1772883277211670300,1.620670166015625,-0.2974913716316223,-0.2125810980796814,-0.12308934330940247
1772883277228276000,1.63727587890625,-0.29504790902137756,-0.21960605680942535,-0.27519479393959045
1772883277244889000,1.65388916015625,-0.3222314119338989,-0.21899518370628357,-0.5009095072746277
1772883277261486800,1.67048681640625,-0.3706424832344055,-0.16752979159355164,-0.7070765495300293
1772883277278092000,1.687092041015625,-0.39614611864089966,-0.052381694316864014,-0.8326093554496765
1772883277294695400,1.7036953125,-0.3859141170978546,0.11667526513338089,-0.8726209998130798
1772883277311302400,1.720302490234375,-0.34666603803634644,0.37171149253845215,-0.8732318878173828
1772883277327925000,1.736925048828125,-0.27779096364974976,0.6517932415008545,-0.9204211831092834
1772883277344507100,1.753507080078125,-0.18616119027137756,0.9195048809051514,-0.9695958495140076
1772883277361117200,1.7701171875,-0.08445212244987488,1.1465940475463867,-0.993114173412323
1772883277377709800,1.786709716796875,0.044287730008363724,1.207069754600525,-0.9581421613693237
1772883277394326300,1.803326171875,0.21991148591041565,1.1146763563156128,-0.8292495608329773
1772883277410934300,1.819934326171875,0.35674530267715454,0.8991936445236206,-0.5514585971832275
1772883277427535600,1.83653564453125,0.41599923372268677,0.5537493228912354,-0.17592918872833252
1772883277444158700,1.85315869140625,0.3738495409488678,0.19883663952350616,0.17440202832221985
1772883277460759300,1.86975927734375,0.2515237629413605,-0.09178250283002853,0.3474296033382416
1772883277477351700,1.8863515625,0.07849618047475815,-0.18997909128665924,0.2967278063297272
1772883277493971200,1.90297119140625,-0.0887281745672226,-0.10781771689653397,0.10216721147298813
1772883277510579700,1.919579833984375,-0.20891591906547546,0.04382958263158798,-0.10277807712554932
1772883277527173600,1.936173583984375,-0.2921462953090668,0.13775011897087097,-0.2698497176170349
1772883277543785700,1.95278564453125,-0.3039054572582245,0.194713294506073,-0.36942076683044434
1772883277560388600,1.969388671875,-0.25076019763946533,0.26251932978630066,-0.39584067463874817
1772883277576972000,1.985971923828125,-0.16691893339157104,0.3367394804954529,-0.38835757970809937
1772883277593600500,2.0026005859375,-0.08597928285598755,0.3830125033855438,-0.38988474011421204
1772883277610204400,2.019204345703125,-0.007941247895359993,0.3686571717262268,-0.3718642294406891
1772883277626813200,2.035813232421875,0.0754418596625328,0.24358251690864563,-0.303600013256073
1772883277643415000,2.0524150390625,0.17791450023651123,0.1082758679986,-0.21899518370628357
1772883277660019000,2.06901904296875,0.24556782841682434,-0.038637228310108185,-0.15241087973117828
1772883277676623400,2.085623291015625,0.2785545587539673,-0.1391245573759079,-0.11423180252313614
1772883277693226800,2.102226806640625,0.29733866453170776,-0.15653422474861145,-0.11468994617462158
1772883277709818400,2.118818359375,0.2877175211906433,-0.15454891324043274,-0.17440202832221985
1772883277726425300,2.13542529296875,0.26679539680480957,-0.14584407210350037,-0.22861631214618683
1772883277743031600,2.152031494140625,0.2535090744495392,-0.07070764899253845,-0.22586742043495178
1772883277759637000,2.168636962890625,0.26969701051712036,-0.004734205547720194,-0.17501288652420044
1772883277776235300,2.1852353515625,0.29596421122550964,0.027641652151942253,-0.13255776464939117
1772883277792846300,2.201846435546875,0.31031954288482666,0.0024434609804302454,-0.1313360333442688
1772883277809452300,2.218452392578125,0.3068070709705353,0.009468411095440388,-0.13607023656368256
1772883277826073600,2.235073486328125,0.27718010544776917,0.11194105446338654,-0.12721268832683563
1772883277842674200,2.251674072265625,0.26908615231513977,0.25182920694351196,-0.07727445662021637
1772883277859282200,2.2682822265625,0.29474249482154846,0.3494149148464203,0.02687807008624077
1772883277875915800,2.284915771484375,0.3321579694747925,0.37720927596092224,0.14676037430763245
1772883277892490000,2.301489990234375,0.3669773042201996,0.3439171314239502,0.24342979490756989
1772883277909088500,2.318088623046875,0.365755558013916,0.23396138846874237,0.2744311988353729
1772883277925705000,2.334705078125,0.32299500703811646,0.0754418596625328,0.22143864631652832
1772883277942305300,2.35130517578125,0.2678644061088562,-0.03344487398862839,0.14416420459747314
1772883277958915600,2.36791552734375,0.19593502581119537,-0.05253441259264946,0.09575312584638596
1772883277975515000,2.384514892578125,0.11759155988693237,-0.04230241850018501,0.09911288321018219
1772883277992122600,2.40112255859375,0.032528575509786606,-0.10690141469240189,0.05497787147760391
1772883278008717600,2.417717529296875,-0.01466076634824276,-0.1362229436635971,-0.06154467165470123
1772883278025333800,2.434333740234375,-0.015271631069481373,-0.06963863968849182,-0.20922134816646576
1772883278041936000,2.450935791015625,-0.020311269909143448,-0.05971207842230797,-0.35185837745666504
1772883278058559700,2.467559814453125,-0.07162395119667053,-0.0754418596625328,-0.37491855025291443
1772883278075128300,2.48412841796875,-0.1215621829032898,-0.10980302840471268,-0.30695977807044983
1772883278091750700,2.500750732421875,-0.1388191282749176,-0.20265454053878784,-0.22067506611347198
1772883278108350700,2.517350830078125,-0.15592335164546967,-0.31459560990333557,-0.08933904021978378
1772883278124961800,2.5339619140625,-0.15729780495166779,-0.3882048726081848,0.15042556822299957
1772883278141563600,2.550563720703125,-0.06948592513799667,-0.39843684434890747,0.44028112292289734
1772883278158168300,2.567168212890625,0.07864890247583389,-0.40775254368782043,0.6728680729866028
1772883278174778000,2.583778076171875,0.24404066801071167,-0.43508878350257874,0.7828238010406494
1772883278191357700,2.600357666015625,0.39645153284072876,-0.394618958234787,0.7988590002059937
1772883278207970300,2.61697021484375,0.5406157374382019,-0.28359419107437134,0.7316638231277466
1772883278224576000,2.633575927734375,0.5965099334716797,-0.19364428520202637,0.5786421298980713
1772883278241182500,2.650182373046875,0.5439754724502563,-0.12370020896196365,0.3605632185935974
1772883278257787100,2.666787109375,0.4983133375644684,-0.0010690141934901476,0.1388191282749176
1772883278274377500,2.68337744140625,0.4764748811721802,0.0734565481543541,-0.04841107130050659
1772883278290996700,2.699996826171875,0.4050036668777466,0.03390302136540413,-0.18539759516716003
1772883278307614000,2.716614013671875,0.2724458873271942,-0.05742133408784866,-0.2678644061088562
1772883278324227300,2.733227294921875,0.15653422474861145,-0.1696678251028061,-0.33689218759536743
1772883278340824000,2.749823974609375,0.12232576310634613,-0.26282477378845215,-0.4115704596042633
1772883278357444000,2.766444091796875,0.1716531366109848,-0.2672535479068756,-0.489608496427536
1772883278374023400,2.7830234375,0.27718010544776917,-0.19196440279483795,-0.5949827432632446
1772883278390637600,2.799637451171875,0.40393465757369995,-0.08384125679731369,-0.6553056836128235
1772883278407227000,2.816226806640625,0.4873177409172058,0.04199698567390442,-0.6165157556533813
1772883278423854000,2.83285400390625,0.5186246037483215,0.1408044397830963,-0.49846604466438293
1772883278440454000,2.849453857421875,0.5077817440032959,0.17073683440685272,-0.3387247920036316
1772883278457041700,2.866041748046875,0.48548516631126404,0.14492778480052948,-0.20845776796340942
1772883278473664800,2.882664794921875,0.44516804814338684,0.12324206531047821,-0.1394299864768982
1772883278490278100,2.899278076171875,0.399200439453125,0.14324790239334106,-0.09514226019382477
1772883278506850000,2.91585009765625,0.3507893681526184,0.1511891484260559,-0.06688974797725677
1772883278523480300,2.932480224609375,0.26832255721092224,0.16249015927314758,-0.015577063895761967
1772883278540081200,2.9490810546875,0.21135938167572021,0.2116648107767105,0.03390302136540413
1772883278556690200,2.965690185546875,0.14263702929019928,0.20066922903060913,0.025656340643763542
1772883278573291500,2.98229150390625,0.028405234217643738,0.10720685124397278,0.06582073122262955
1772883278589905400,2.998905517578125,-0.08429940044879913,0.06887505948543549,0.19883663952350616
1772883278606492400,3.015492431640625,-0.15500704944133759,0.017562376335263252,0.2701551616191864
1772883278623118000,3.0321181640625,-0.2243402600288391,-0.08689557760953903,0.2226603776216507
1772883278639711200,3.048711181640625,-0.3263547718524933,-0.168751522898674,0.1359175145626068
1772883278656320000,3.065320068359375,-0.4590652287006378,-0.16539175808429718,0.076052725315094
1772883278672924700,3.081924560546875,-0.626747727394104,-0.14508049190044403,0.011453723534941673
1772883278689513200,3.09851318359375,-0.7982481718063354,-0.11575896292924881,-0.005345070734620094
1772883278706118700,3.11511865234375,-0.8900306820869446,0.01191187184303999,0.08368854224681854
1772883278722718500,3.131718505859375,-0.8582656979560852,0.22189679741859436,0.21609358489513397
1772883278739331600,3.14833154296875,-0.7819074988365173,0.34086281061172485,0.2396118938922882
1772883278755939000,3.16493896484375,-0.7406741380691528,0.34025195240974426,0.16035212576389313
1772883278772541200,3.181541259765625,-0.7612907886505127,0.27977627515792847,0.02519819140434265
1772883278789134600,3.198134521484375,-0.8089383244514465,0.22220222651958466,-0.06627888232469559
1772883278805769200,3.214769287109375,-0.850171685218811,0.1609629988670349,-0.07009678333997726
1772883278822370800,3.231370849609375,-0.8639161586761475,0.1388191282749176,-0.0074830991216003895
1772883278838975700,3.247975830078125,-0.8432994484901428,0.19593502581119537,0.0656680166721344
1772883278855580400,3.264580322265625,-0.7854200005531311,0.38408151268959045,0.17318029701709747
1772883278872150000,3.28114990234375,-0.6676757335662842,0.6159048676490784,0.3170390725135803
1772883278888794400,3.29779443359375,-0.46990808844566345,0.7840455174446106,0.4619668424129486
1772883278905391600,3.3143916015625,-0.24159720540046692,0.8095491528511047,0.5879577994346619
1772883278922005000,3.3310048828125,-0.04306599870324135,0.6681338548660278,0.6944010853767395
1772883278938605800,3.347605712890625,0.08246681094169617,0.365755558013916,0.7602217793464661
1772883278955190000,3.36418994140625,0.13316862285137177,0.026114489883184433,0.8161159753799438
1772883278971817200,3.380817138671875,0.10781771689653397,-0.2454151064157486,0.816726803779602
1772883278988404000,3.397404052734375,0.013897184282541275,-0.4311181604862213,0.722959041595459
1772883279005012500,3.414012451171875,-0.11881329119205475,-0.5140430927276611,0.542142927646637
1772883279021616600,3.43061669921875,-0.24617868661880493,-0.5126686692237854,0.29245173931121826
1772883279038222000,3.44722216796875,-0.35063666105270386,-0.4219551682472229,-0.005039638374000788
1772883279054827000,3.463826904296875,-0.4222606122493744,-0.2970332205295563,-0.2574796974658966
1772883279071432000,3.480431884765625,-0.4668537676334381,-0.13011430203914642,-0.4285219609737396
1772883279088036600,3.49703662109375,-0.4717406928539276,0.0555887371301651,-0.5480988621711731
1772883279104633600,3.513633544921875,-0.4508185386657715,0.20830504596233368,-0.6023131608963013
1772883279121265200,3.53026513671875,-0.43249258399009705,0.26939156651496887,-0.5960517525672913
1772883279137865200,3.546865234375,-0.4046982228755951,0.2635883390903473,-0.5647448897361755
1772883279154471000,3.563470947265625,-0.36102136969566345,0.2506074607372284,-0.531147301197052
1772883279171073300,3.5800732421875,-0.3043636083602905,0.25366178154945374,-0.521984338760376
1772883279187666000,3.596666015625,-0.24862214922904968,0.24892759323120117,-0.5380195379257202
1772883279204274200,3.613274169921875,-0.1849394589662552,0.23121249675750732,-0.5160284042358398
1772883279220878300,3.62987841796875,-0.1160643994808197,0.19120082259178162,-0.4541783034801483
1772883279237478700,3.646478759765625,-0.060933809727430344,0.10903944820165634,-0.3504839241504669
1772883279254087000,3.6630869140625,0.006108652334660292,0.04642575979232788,-0.25305092334747314
1772883279270691800,3.67969189453125,0.06948592513799667,-0.05253441259264946,-0.2096794992685318
1772883279287310600,3.696310546875,0.08735372871160507,-0.10445795953273773,-0.19104810059070587
1772883279303918300,3.71291845703125,0.08155050873756409,-0.13484850525856018,-0.21578814089298248
1772883279320521000,3.72952099609375,0.07269296050071716,-0.09941831976175308,-0.244804248213768
1772883279337126400,3.74612646484375,0.08414668589830399,-0.07223481684923172,-0.26145032048225403
1772883279353730800,3.762730712890625,0.09254608303308487,-0.059406645596027374,-0.2353358417749405
1772883279370333200,3.779333251953125,0.09086620807647705,-0.0731511116027832,-0.21242839097976685
1772883279386948900,3.795948974609375,0.08536841720342636,-0.08032877743244171,-0.1814269721508026
1772883279403536100,3.8125361328125,0.09346238523721695,-0.07498370856046677,-0.13377949595451355
1772883279420155000,3.82915478515625,0.1235474944114685,-0.08445212244987488,-0.08597928285598755
1772883279436756000,3.845755859375,0.1699732542037964,-0.10201449692249298,-0.03726277872920036
1772883279453361000,3.86236083984375,0.22143864631652832,-0.12751811742782593,0.013133603148162365
1772883279469956000,3.8789560546875,0.2353358417749405,-0.17928895354270935,0.05268712714314461
1772883279486559500,3.8955595703125,0.19089539349079132,-0.2321287989616394,0.08811730891466141
1772883279503180300,3.91218017578125,0.09697485715150833,-0.26374107599258423,0.1014036312699318
1772883279519785200,3.92878515625,-0.010690141469240189,-0.22281309962272644,0.1007927656173706
1772883279536385500,3.945385498046875,-0.07987063378095627,-0.11438451707363129,0.1241583600640297
1772883279552991000,3.961990966796875,-0.09941831976175308,0.03039054572582245,0.19532416760921478
1772883279569595600,3.978595703125,-0.06582073122262955,0.10720685124397278,0.2834414839744568
1772883279586198000,3.995197998046875,0.0003054326225537807,0.13255776464939117,0.39645153284072876
1772883279602806000,4.011805908203125,0.07910704612731934,0.15317445993423462,0.5607742667198181
1772883279619415300,4.028415283203125,0.18845193088054657,0.16890424489974976,0.769690215587616
1772883279636015600,4.045015625,0.3234531581401825,0.16691893339157104,0.9677632451057434
1772883279652621300,4.061621337890625,0.43279802799224854,0.11988230794668198,1.0604621171951294
1772883279669222100,4.07822216796875,0.4833471179008484,0.024587325751781464,1.033125877380371
1772883279685817300,4.0948173828125,0.47280970215797424,-0.10125091671943665,0.9246972799301147
1772883279702411500,4.11141162109375,0.41462478041648865,-0.2174680233001709,0.7617489695549011
1772883279719028700,4.12802880859375,0.2961169183254242,-0.32498031854629517,0.5752823352813721
1772883279735632100,4.144632080078125,0.1485929638147354,-0.3617849349975586,0.38469240069389343
1772883279752237600,4.161237548828125,0.021991148591041565,-0.2816088795661926,0.19394971430301666
1772883279768842500,4.177842529296875,-0.05910121276974678,-0.08964447677135468,-0.02886338345706463
1772883279785464300,4.19446435546875,-0.10461067408323288,0.08704829961061478,-0.2814561724662781
1772883279802066400,4.21106640625,-0.1290452778339386,0.2194533348083496,-0.4683809280395508
1772883279818671400,4.22767138671875,-0.11194105446338654,0.3000875413417816,-0.5699372887611389
1772883279835276500,4.244276611328125,-0.03848451003432274,0.30344730615615845,-0.5694791078567505
1772883279851880700,4.260880615234375,0.08216137439012527,0.27458393573760986,-0.4853324294090271
1772883279868485000,4.277485107421875,0.22861631214618683,0.24159720540046692,-0.3651446998119354
1772883279885092400,4.29409228515625,0.33429601788520813,0.2174680233001709,-0.25793784856796265
1772883279901696500,4.310696533203125,0.36911532282829285,0.18616119027137756,-0.19120082259178162
1772883279918298000,4.327298095703125,0.3686571717262268,0.1797471046447754,-0.1388191282749176
1772883279934909400,4.343909423828125,0.3588833212852478,0.19853121042251587,-0.10323622822761536
1772883279951507200,4.360507080078125,0.3481931984424591,0.25763240456581116,-0.09514226019382477
1772883279968123600,4.37712353515625,0.34025195240974426,0.289702832698822,-0.10567969083786011
1772883279984718800,4.39371875,0.33078351616859436,0.28557950258255005,-0.09987647086381912
1772883280001326800,4.410326904296875,0.3124575614929199,0.2623666226863861,-0.050243668258190155
1772883280017931800,4.426931884765625,0.289244681596756,0.19318613409996033,-0.00733038317412138
1772883280034536400,4.443536376953125,0.25014930963516235,0.09269879758358002,-0.012217304669320583
1772883280051140600,4.460140625,0.18906278908252716,0.009010262787342072,-0.0529925599694252
1772883280067747000,4.4767470703125,0.08979719132184982,-0.028405234217643738,-0.08994990587234497
1772883280084352300,4.493352294921875,-0.03573561832308769,-0.02779436856508255,-0.08796459436416626
1772883280100956400,4.509956298828125,-0.152105450630188,-0.03390302136540413,-0.05650503560900688
1772883280117560300,4.526560302734375,-0.2561052441596985,-0.052839845418930054,-0.03527746722102165
1772883280134166800,4.543166748046875,-0.36453384160995483,-0.06643159687519073,-0.04993823543190956
1772883280150771200,4.559771240234375,-0.46990808844566345,-0.056810468435287476,-0.10048733651638031
1772883280167358500,4.5763583984375,-0.528245747089386,-0.016951510682702065,-0.144622340798378
1772883280183969300,4.59296923828125,-0.5558874011039734,0.01466076634824276,-0.16081027686595917
1772883280200572700,4.60957275390625,-0.5520694851875305,0.014813481830060482,-0.13805554807186127
1772883280217178000,4.62617822265625,-0.5273294448852539,-0.04902193695306778,-0.05742133408784866
1772883280233782500,4.642782470703125,-0.46105054020881653,-0.1463022232055664,0.03420845419168472
1772883280250387700,4.6593876953125,-0.36819902062416077,-0.24908030033111572,0.1033889427781105
1772883280266992000,4.6759921875,-0.3072652220726013,-0.3413209617137909,0.12751811742782593
1772883280283618600,4.69261865234375,-0.3045163154602051,-0.45066583156585693,0.04092797264456749
1772883280300211500,4.70921142578125,-0.36453384160995483,-0.566730260848999,-0.14004085958003998
1772883280316827400,4.725827392578125,-0.4567744731903076,-0.5997169613838196,-0.3197879493236542
1772883280333426700,4.7424267578125,-0.5378668308258057,-0.47708576917648315,-0.3880521357059479
1772883280350031600,4.759031494140625,-0.6000223755836487,-0.22892175614833832,-0.33536502718925476
1772883280366642400,4.775642333984375,-0.5823072791099548,0.11530081182718277,-0.21181751787662506
1772883280383236600,4.792236572265625,-0.44776421785354614,0.47540587186813354,-0.038026362657547
1772883280399846700,4.8088466796875,-0.19883663952350616,0.6624833345413208,0.19135354459285736
1772883280416452000,4.8254521484375,0.07635815441608429,0.6479753255844116,0.4005748927593231
1772883280433057300,4.842057373046875,0.26419922709465027,0.4534147381782532,0.551916778087616
1772883280449661400,4.858661376953125,0.3400992155075073,0.11255192011594772,0.6395758986473083
1772883280466261200,4.87526123046875,0.32039880752563477,-0.2678644061088562,0.6698137521743774
1772883280482873900,4.891873779296875,0.24419337511062622,-0.5904012322425842,0.641255795955658
1772883280499481000,4.908481201171875,0.08979719132184982,-0.774118959903717,0.5166392922401428
1772883280516082200,4.925082275390625,-0.1365283876657486,-0.8177958726882935,0.28237244486808777
1772883280532687600,4.9416875,-0.4021020531654358,-0.7570147514343262,0.0025961773935705423
1772883280549291500,4.95829150390625,-0.660803496837616,-0.6296493411064148,-0.2513710558414459
1772883280565893400,4.974893310546875,-0.8481863737106323,-0.37858372926712036,-0.4801400899887085
1772883280582502400,4.99150244140625,-0.9645562171936035,0.004123340360820293,-0.7092145681381226
1772883280599111000,5.00811083984375,-0.9984592199325562,0.43539419770240784,-0.912938117980957
1772883280615712300,5.024712158203125,-0.9497427344322205,0.7530441284179688,-1.0178542137145996
1772883280632318000,5.04131787109375,-0.8419250249862671,0.9195048809051514,-0.9902125597000122
1772883280648921900,5.057921875,-0.694248378276825,0.9292787313461304,-0.856433093547821
1772883280665510000,5.074510009765625,-0.5328271985054016,0.82207190990448,-0.7009678483009338
1772883280682119400,5.091119384765625,-0.3715587854385376,0.6349944472312927,-0.5865833759307861
1772883280698723600,5.1077236328125,-0.24434609711170197,0.4054618179798126,-0.5109887719154358
1772883280715328500,5.12432861328125,-0.14492778480052948,0.20784689486026764,-0.395077109336853
1772883280731933700,5.14093359375,-0.04902193695306778,0.08506298810243607,-0.2796235680580139
1772883280748538600,5.15753857421875,0.0455094613134861,0.032681290060281754,-0.22602014243602753
1772883280765157400,5.174157470703125,0.11652254313230515,0.022602014243602753,-0.22815817594528198
1772883280781766400,5.190766357421875,0.15103642642498016,0.025961773470044136,-0.22082778811454773
1772883280798367500,5.207367431640625,0.17180584371089935,0.055894169956445694,-0.1992947906255722
1772883280814972400,5.223972412109375,0.17211128771305084,0.05314527451992035,-0.22052235901355743
1772883280831577000,5.2405771484375,0.1443169116973877,0.01572977937757969,-0.2765692472457886
1772883280848182800,5.257182861328125,0.11988230794668198,-0.032528575509786606,-0.3280346393585205
1772883280864783000,5.273783203125,0.11759155988693237,-0.058337632566690445,-0.3442225754261017
1772883280881397000,5.29039697265625,0.1498146951198578,-0.03649919852614403,-0.3142901659011841
1772883280897998000,5.306998046875,0.21670444309711456,0.02229658141732216,-0.2451096773147583
1772883280914602200,5.323602294921875,0.27779096364974976,0.040164388716220856,-0.18875735998153687
1772883280931208200,5.340208251953125,0.2987131178379059,0.00931569468230009,-0.15317445993423462
1772883280947796200,5.356796142578125,0.2822197377681732,-0.025656340643763542,-0.1111774742603302
1772883280964417000,5.3734169921875,0.2483167201280594,-0.07483099400997162,-0.050243668258190155
1772883280981023500,5.3900234375,0.19593502581119537,-0.16523905098438263,0.00427605677396059
1772883280997627400,5.40662744140625,0.14553864300251007,-0.28099802136421204,0.07208210229873657
1772883281014233300,5.4232333984375,0.08292495459318161,-0.34406983852386475,0.15806138515472412
1772883281030838300,5.43983837890625,0.017409659922122955,-0.3065016269683838,0.2168571650981903
1772883281047442200,5.456442138671875,-0.01618792861700058,-0.17180584371089935,0.244804248213768
1772883281064044000,5.4730439453125,-0.003817907767370343,-0.00015271631127689034,0.28527405858039856
1772883281080663800,5.489663818359375,0.017867809161543846,0.11224649101495743,0.3799581825733185
1772883281097251800,5.506251953125,0.021838432177901268,0.0685696229338646,0.475253164768219
1772883281113863200,5.52286328125,0.02122756652534008,-0.06414084881544113,0.5392413139343262
1772883281130468600,5.539468505859375,0.039706241339445114,-0.19578230381011963,0.6272059082984924
1772883281147055900,5.556055908203125,0.08597928285598755,-0.2551889419555664,0.788016140460968
1772883281163660800,5.572660888671875,0.14065171778202057,-0.24556782841682434,0.9631817936897278
1772883281180273000,5.58927294921875,0.18478673696517944,-0.1742493063211441,1.060614824295044
1772883281196874500,5.60587451171875,0.2021963894367218,-0.09224065393209457,1.0711522102355957
1772883281213479200,5.622479248046875,0.2025018334388733,-0.050243668258190155,1.0326677560806274
1772883281230084600,5.639084716796875,0.20341812074184418,-0.06352998316287994,0.9396634697914124
1772883281246689500,5.655689453125,0.1736384481191635,-0.12247848510742188,0.7921395301818848
1772883281263315700,5.672315673828125,0.11667526513338089,-0.2064724564552307,0.5849034786224365
1772883281279909400,5.688909423828125,0.05497787147760391,-0.26404649019241333,0.3674354553222656
1772883281296518400,5.705518310546875,0.0019853119738399982,-0.26404649019241333,0.16752979159355164
1772883281313123600,5.72212353515625,-0.008246680721640587,-0.17088955640792847,0.013744467869400978
1772883281329719600,5.738719482421875,0.018325956538319588,-0.08231408894062042,-0.10583240538835526
1772883281346333000,5.7553330078125,0.033139441162347794,-0.06001751124858856,-0.22907446324825287
1772883281362936000,5.77193603515625,0.024587325751781464,-0.07742717117071152,-0.36682456731796265
1772883281379545900,5.7885458984375,0.032681290060281754,-0.06398813426494598,-0.4596760869026184
1772883281396149000,5.80514892578125,0.06490442901849747,-0.04092797264456749,-0.5076290369033813
1772883281412753700,5.821753662109375,0.12064588814973831,0.00855211354792118,-0.4911356568336487
1772883281429359000,5.838359130859375,0.18310685455799103,0.08017606288194656,-0.41752639412879944
1772883281445963000,5.854962890625,0.24556782841682434,0.1459967941045761,-0.3527746796607971
1772883281462572300,5.871572265625,0.28130343556404114,0.16951510310173035,-0.33918291330337524
1772883281479170300,5.88817041015625,0.294895201921463,0.17180584371089935,-0.32940909266471863
1772883281495779000,5.904779052734375,0.3078760802745819,0.16890424489974976,-0.28237244486808777
1772883281512383700,5.9213837890625,0.31031954288482666,0.1661553531885147,-0.1963931769132614
1772883281528989200,5.9379892578125,0.30695977807044983,0.17302757501602173,-0.09682214260101318
1772883281545593900,5.95459375,0.289244681596756,0.14813482761383057,-0.04230241850018501
1772883281562189800,5.97118994140625,0.25641068816185,0.09834930300712585,0.028557950630784035
1772883281578813200,5.987813232421875,0.21899518370628357,-0.008857546374201775,0.14355333149433136
1772883281595409200,6.0044091796875,0.18784105777740479,-0.16768251359462738,0.2269364446401596
1772883281612013600,6.021013671875,0.13607023656368256,-0.33429601788520813,0.2373211532831192
1772883281628619000,6.037618896484375,0.031612277030944824,-0.4334088861942291,0.2431243658065796
1772883281645205500,6.05420556640625,-0.08796459436416626,-0.48319441080093384,0.2557998299598694
1772883281661818000,6.070818115234375,-0.17150041460990906,-0.5109887719154358,0.2643519341945648
1772883281678418400,6.08741845703125,-0.24724771082401276,-0.4893030524253845,0.3116939961910248
1772883281695025400,6.104025390625,-0.3292563557624817,-0.4248567819595337,0.3504839241504669
1772883281711630000,6.120630126953125,-0.3903428912162781,-0.3605632185935974,0.351400226354599
1772883281728235300,6.1372353515625,-0.4356996417045593,-0.3677408695220947,0.34987306594848633
1772883281744840200,6.153840087890625,-0.45631635189056396,-0.3594942092895508,0.38606682419776917
1772883281761442300,6.1704423828125,-0.4758640229701996,-0.22800545394420624,0.4115704596042633
1772883281778067200,6.187067138671875,-0.504574716091156,-0.04749477282166481,0.3341432809829712
1772883281794668800,6.203668701171875,-0.5232060551643372,0.096211276948452,0.2451096773147583
1772883281811274500,6.2202744140625,-0.518471896648407,0.1722639948129654,0.2513710558414459
1772883281827879000,6.23687890625,-0.5232060551643372,0.16401731967926025,0.34773504734039307
1772883281844483800,6.25348388671875,-0.499382346868515,0.08628471940755844,0.4343251883983612
1772883281861088500,6.270088623046875,-0.45921793580055237,0.03390302136540413,0.4651738703250885
1772883281877695000,6.286695068359375,-0.4476115107536316,0.06658431142568588,0.39813143014907837
1772883281894299100,6.303299072265625,-0.4564690589904785,0.16569720208644867,0.29565876722335815
1772883281910904300,6.319904296875,-0.45753806829452515,0.2970332205295563,0.32910364866256714
1772883281927509200,6.33650927734375,-0.43417248129844666,0.31383201479911804,0.5085453391075134
1772883281944109800,6.35310986328125,-0.3446807265281677,0.2122756689786911,0.7680103182792664
1772883281960720000,6.369719970703125,-0.22311852872371674,0.11438451707363129,1.036943793296814
1772883281977329200,6.3863291015625,-0.16249015927314758,-0.08765916526317596,1.144608736038208
1772883281993929200,6.40292919921875,-0.18096883594989777,-0.34804046154022217,1.101084589958191
1772883282010534700,6.41953466796875,-0.2770273983478546,-0.5285511612892151,0.9642508029937744
1772883282027139800,6.436139892578125,-0.4421137273311615,-0.6815729141235352,0.7932085394859314
1772883282043729000,6.45272900390625,-0.5972734689712524,-0.7484626173973083,0.6275113224983215
1772883282060354000,6.46935400390625,-0.6727153658866882,-0.7389942407608032,0.47708576917648315
1772883282076950300,6.4859501953125,-0.6704245805740356,-0.5936083197593689,0.36071592569351196
1772883282093559800,6.502559814453125,-0.6475171446800232,-0.41722095012664795,0.26710084080696106
1772883282110164700,6.519164794921875,-0.6684392690658569,-0.31261029839515686,0.18845193088054657
1772883282126753000,6.5357529296875,-0.7044803500175476,-0.2987131178379059,0.07696902006864548
1772883282143361800,6.55236181640625,-0.6948592066764832,-0.26083946228027344,-0.04001167416572571
1772883282159949600,6.568949462890625,-0.6346889734268188,-0.20097467303276062,-0.09010262042284012
1772883282176574700,6.58557470703125,-0.5485569834709167,-0.22052235901355743,-0.04153883829712868
1772883282193176000,6.602176025390625,-0.4502076804637909,-0.2808452844619751,0.07757988572120667
1772883282209781500,6.618781494140625,-0.3620903789997101,-0.3623957931995392,0.13897185027599335
1772883282226386200,6.63538623046875,-0.2834414839744568,-0.4795292317867279,0.08888089656829834
1772883282242990600,6.651990478515625,-0.2588541507720947,-0.5937610268592834,-0.013897184282541275
1772883282259612700,6.66861279296875,-0.2577851414680481,-0.5451972484588623,-0.022143865004181862
1772883282276212500,6.68521240234375,-0.24373523890972137,-0.4579962193965912,0.0429132841527462
1772883282292820000,6.701820068359375,-0.23625212907791138,-0.44684791564941406,0.13805554807186127
1772883282309421300,6.71842138671875,-0.18509216606616974,-0.44577890634536743,0.23777928948402405
1772883282326034400,6.735034423828125,-0.08796459436416626,-0.39354994893074036,0.23380866646766663
1772883282342617600,6.75161767578125,-0.005345070734620094,-0.3549126982688904,0.09437867999076843
1772883282359244000,6.768244140625,0.020616702735424042,-0.3533855378627777,-0.06276640295982361
1772883282375846400,6.784846435546875,0.016035212203860283,-0.30543261766433716,-0.10445795953273773
1772883282392450000,6.801449951171875,0.04199698567390442,-0.168751522898674,-0.07513642311096191
1772883282409052700,6.818052734375,0.07666359096765518,-0.05971207842230797,-0.11178833991289139
1772883282425663500,6.83466357421875,0.07757988572120667,-0.005497787147760391,-0.18539759516716003
1772883282442268000,6.851267822265625,0.09392052888870239,0.07849618047475815,-0.1745547503232956
1772883282458868200,6.8678681640625,0.14584407210350037,0.07391469180583954,-0.06520986557006836
1772883282475475700,6.884475830078125,0.1713477075099945,-0.026572637259960175,0.04046982154250145
1772883282492080400,6.901080322265625,0.17379115521907806,-0.12110403180122375,0.06520986557006836
1772883282508685800,6.917685791015625,0.16691893339157104,-0.2096794992685318,0.03344487398862839
1772883282525290500,6.93429052734375,0.1485929638147354,-0.24862214922904968,0.022143865004181862
1772883282541895700,6.950895751953125,0.1342376321554184,-0.1866193264722824,0.028405234217643738
1772883282558500900,6.9675009765625,0.1621847152709961,-0.06475171446800232,0.053297992795705795
1772883282575106300,6.984106201171875,0.20112738013267517,-0.01970040425658226,0.06933320313692093
1772883282591710500,7.00071044921875,0.2116648107767105,-0.0024434609804302454,0.09682214260101318
1772883282608312300,7.017312255859375,0.19028452038764954,0.1336267739534378,0.13759739696979523
1772883282624907800,7.03390771484375,0.13759739696979523,0.33536502718925476,0.13775011897087097
1772883282641512400,7.050512451171875,0.10903944820165634,0.4547891616821289,0.06765332818031311
1772883282658117400,7.067117431640625,0.0705549344420433,0.29275718331336975,-0.11713340878486633
1772883282674722600,7.08372265625,-0.02321287989616394,-0.044287730008363724,-0.30405816435813904
1772883282691327000,7.100326904296875,-0.1108720451593399,-0.2451096773147583,-0.351400226354599
1772883282707932400,7.116932373046875,-0.13439035415649414,-0.1485929638147354,-0.24388794600963593
1772883282724537600,7.13353759765625,-0.0757472887635231,0.11835514008998871,-0.011301007121801376
1772883282741159400,7.150159423828125,-0.0012217304902151227,0.35124751925468445,0.26679539680480957
1772883282757760500,7.166760498046875,0.10247264802455902,0.4118759036064148,0.43249258399009705
1772883282774366500,7.183366455078125,0.22739458084106445,0.40683624148368835,0.4769330322742462
1772883282790971400,7.199971435546875,0.3318525552749634,0.2347249686717987,0.4164573848247528
1772883282807576000,7.216576171875,0.39935314655303955,-0.044745877385139465,0.34147366881370544
1772883282824181500,7.233181396484375,0.4164573848247528,-0.197004035115242,0.3507893681526184
1772883282840786200,7.2497861328125,0.4147774875164032,-0.20784689486026764,0.3882048726081848
1772883282857383700,7.2663837890625,0.41462478041648865,-0.19028452038764954,0.4109596014022827
1772883282874005000,7.2830048828125,0.41263946890830994,-0.17272214591503143,0.3904955983161926
1772883282890601700,7.299601806640625,0.39416080713272095,-0.16249015927314758,0.2620611786842346
1772883282907207000,7.31620703125,0.32070425152778625,-0.21578814089298248,0.030237829312682152
1772883282923811600,7.3328115234375,0.22479841113090515,-0.3179553747177124,-0.1788308024406433
1772883282940416500,7.34941650390625,0.1589776873588562,-0.30115658044815063,-0.2554943859577179
1772883282957021700,7.366021728515625,0.1270599663257599,-0.1313360333442688,-0.2246456891298294
1772883282973627000,7.382626953125,0.10415252298116684,0.09743300825357437,-0.17180584371089935
1772883282990231600,7.3992314453125,0.0708603709936142,0.18005253374576569,-0.1849394589662552
1772883283006836700,7.415836669921875,0.052228979766368866,0.12629638612270355,-0.21349740028381348
1772883283023442000,7.43244189453125,0.05100724846124649,0.06719517707824707,-0.21914790570735931
1772883283040046800,7.449046875,0.05971207842230797,0.030543262138962746,-0.24938572943210602
1772883283056651500,7.465651611328125,0.07437284290790558,0.0754418596625328,-0.28099802136421204
1772883283073257200,7.48225732421875,0.0835358202457428,0.14538592100143433,-0.3081815242767334
1772883283089862100,7.498862060546875,0.07101308554410934,0.18035796284675598,-0.29168814420700073
1772883283106436400,7.515436279296875,0.06750060617923737,0.1843285858631134,-0.21823160350322723
1772883283123058400,7.532058349609375,0.0910189226269722,0.1059851199388504,-0.13377949595451355
1772883283139663400,7.548663330078125,0.13759739696979523,-0.004123340360820293,-0.09269879758358002
1772883283156268300,7.565268310546875,0.16768251359462738,-0.07742717117071152,-0.12919799983501434
1772883283172873700,7.581873779296875,0.15745051205158234,-0.12217304855585098,-0.23365595936775208
1772883283189478400,7.598478515625,0.12599095702171326,-0.15164729952812195,-0.30711251497268677
1772883283206083600,7.61508349609375,0.09865473955869675,-0.17776179313659668,-0.30344730615615845
1772883283222688300,7.631688232421875,0.06902777403593063,-0.1540907621383667,-0.26862800121307373
1772883283239310300,7.648310302734375,0.027641652151942253,-0.1492038369178772,-0.2557998299598694
1772883283255895800,7.664895751953125,-0.004734205547720194,-0.16035212576389313,-0.24144448339939117
1772883283272517000,7.68151708984375,-0.01970040425658226,-0.14828753471374512,-0.22449298202991486
1772883283289136400,7.698136474609375,-0.01771509274840355,-0.11667526513338089,-0.22281309962272644
1772883283305710600,7.714710693359375,-0.02580905705690384,-0.11453723162412643,-0.2093740701675415
1772883283322332700,7.731332763671875,-0.039248090237379074,-0.11331550031900406,-0.14187344908714294
1772883283338937000,7.74793701171875,-0.05665775015950203,-0.0884227454662323,-0.0455094613134861
1772883283355542800,7.764542724609375,-0.07681630551815033,-0.0887281745672226,0.014355333521962166
1772883283372148200,7.781148193359375,-0.07208210229873657,-0.07513642311096191,0.015271631069481373
1772883283388735700,7.79773583984375,-0.044135015457868576,-0.02519819140434265,-0.00809396430850029
1772883283405358000,7.814358154296875,-0.06429356336593628,-0.09605856239795685,-0.06627888232469559
1772883283421962500,7.83096240234375,-0.11804971098899841,-0.2802344262599945,-0.15393804013729095
1772883283438567200,7.847567138671875,-0.18509216606616974,-0.4599815309047699,-0.20372356474399567
1772883283455173000,7.864173095703125,-0.24663683772087097,-0.5360342264175415,-0.15454891324043274
1772883283471778000,7.880778076171875,-0.3269656300544739,-0.4535674452781677,-0.08597928285598755
1772883283488383200,7.89738330078125,-0.3865249752998352,-0.23457226157188416,-0.10094548016786575
1772883283504988200,7.91398828125,-0.4190535545349121,0.10613783448934555,-0.1638645976781845
1772883283521592800,7.9305927734375,-0.42271876335144043,0.3303253948688507,-0.23426681756973267
1772883283538197500,7.947197509765625,-0.41233405470848083,0.3211624026298523,-0.20341812074184418
1772883283554803200,7.96380322265625,-0.42210787534713745,0.1488984078168869,-0.06475171446800232
1772883283571408100,7.980408203125,-0.4495968222618103,-0.1082758679986,0.053297992795705795
1772883283588013000,7.997012939453125,-0.5157229900360107,-0.3446807265281677,0.1160643994808197
1772883283604601000,8.01360107421875,-0.5853615999221802,-0.4512766897678375,0.13072516024112701
1772883283621209600,8.030209716796875,-0.6282749176025391,-0.40591996908187866,0.10170906037092209
1772883283637814300,8.046814208984374,-0.6614143252372742,-0.3269656300544739,-0.020463986322283745
1772883283654419700,8.063419677734375,-0.6869179606437683,-0.28038713335990906,-0.2220495194196701
1772883283671025000,8.08002490234375,-0.6919575929641724,-0.23121249675750732,-0.380721777677536
1772883283687629800,8.0966298828125,-0.6647741198539734,-0.14828753471374512,-0.4300491213798523
1772883283704234500,8.113234375,-0.5975789427757263,-0.07727445662021637,-0.40194934606552124
1772883283720840000,8.12983984375,-0.5221370458602905,0.02168571576476097,-0.34513887763023376
1772883283737461800,8.146461669921875,-0.4812090992927551,0.05925392732024193,-0.3326161205768585
1772883283754063600,8.163063720703125,-0.46700647473335266,0.019853120669722557,-0.3582724630832672
1772883283770669000,8.1796689453125,-0.4424191415309906,-0.04764748737215996,-0.37262779474258423
1772883283787273200,8.196273193359374,-0.38209620118141174,-0.10155634582042694,-0.3549126982688904
1772883283803879000,8.21287890625,-0.29336804151535034,-0.14385876059532166,-0.3494149148464203
1772883283820484000,8.229484130859374,-0.22449298202991486,-0.15057829022407532,-0.3649919927120209
1772883283837088800,8.2460888671875,-0.19379699230194092,-0.12919799983501434,-0.34926220774650574
1772883283853693700,8.262693603515626,-0.18051068484783173,-0.07880161702632904,-0.2919935882091522
1772883283870299100,8.279299072265625,-0.17241671681404114,-0.06017022579908371,-0.23426681756973267
1772883283886903600,8.295903564453125,-0.16065755486488342,-0.10537425428628922,-0.22098049521446228
1772883283903506200,8.312506103515625,-0.13439035415649414,-0.14645494520664215,-0.2243402600288391
1772883283920082400,8.32908251953125,-0.09834930300712585,-0.10705413669347763,-0.21792617440223694
1772883283936718600,8.345718505859375,-0.06688974797725677,-0.04352414980530739,-0.19776763021945953
1772883283953324500,8.362324462890625,-0.02672535367310047,0.011301007121801376,-0.18005253374576569
1772883283969929200,8.37892919921875,0.009926560334861279,-0.015271631069481373,-0.1495092660188675
1772883283986534100,8.3955341796875,0.05421429127454758,-0.07208210229873657,-0.08429940044879913
1772883284003138800,8.412138916015625,0.11423180252313614,-0.11133018881082535,-0.06261368840932846
1772883284019744300,8.428744140625,0.17837265133857727,-0.08384125679731369,-0.1241583600640297
1772883284036334000,8.445333984375,0.22571471333503723,-0.04337143152952194,-0.1927279829978943
1772883284052954600,8.46195458984375,0.28817567229270935,0.08475755155086517,-0.1722639948129654
1772883284069559800,8.478559814453124,0.3240640163421631,0.2096794992685318,-0.05146539583802223
1772883284086145000,8.49514501953125,0.28130343556404114,0.34025195240974426,0.0019853119738399982
1772883284102755800,8.511755859375,0.2151772826910019,0.3107776939868927,-0.18188512325286865
1772883284119360800,8.52836083984375,0.13897185027599335,0.15790866315364838,-0.4723515510559082
1772883284135965400,8.54496533203125,0.11499538272619247,0.015882495790719986,-0.6736316680908203
1772883284152571000,8.56157080078125,0.12782354652881622,-0.01466076634824276,-0.6407976150512695
1772883284169176000,8.578176025390626,0.15103642642498016,0.01542434748262167,-0.46761733293533325
1772883284185781000,8.594781005859375,0.21151208877563477,0.17959438264369965,-0.19685132801532745
1772883284202385700,8.6113857421875,0.294895201921463,0.33628132939338684,0.12522737681865692
1772883284218994400,8.627994384765625,0.361174076795578,0.370947927236557,0.40714168548583984
1772883284235593000,8.644593017578124,0.40164390206336975,0.35185837745666504,0.5775730609893799
1772883284252215300,8.66121533203125,0.43646320700645447,0.3078760802745819,0.6064364910125732
1772883284268820200,8.6778203125,0.47448956966400146,0.2396118938922882,0.5603161454200745
1772883284285424600,8.694424560546874,0.48288896679878235,0.12919799983501434,0.5215262174606323
1772883284302029800,8.71102978515625,0.48517972230911255,0.04795292019844055,0.4821254014968872
1772883284318635000,8.727635009765624,0.47708576917648315,0.02825251780450344,0.38179078698158264
1772883284335223300,8.744223388671875,0.45982882380485535,-0.01114829070866108,0.2542726695537567
1772883284351844900,8.760844970703126,0.423329621553421,-0.014813481830060482,0.15531249344348907
1772883284368450600,8.777450439453125,0.4101960062980652,0.04077525436878204,0.07742717117071152
1772883284385055500,8.794055419921875,0.4121813178062439,0.14492778480052948,-0.004123340360820293
1772883284401660400,8.810660400390624,0.3917173445224762,0.2295326143503189,-0.07437284290790558
1772883284418265300,8.827265380859375,0.3562871515750885,0.23548854887485504,-0.039248090237379074
1772883284434853600,8.843853515625,0.3833179473876953,0.235030397772789,0.08200865983963013
1772883284451475700,8.860475830078125,0.43157628178596497,0.2292271852493286,0.16600263118743896
1772883284468080400,8.877080322265625,0.43417248129844666,0.16325373947620392,0.13377949595451355
1772883284484685600,8.893685546875,0.40362921357154846,0.09376781433820724,0.05803219974040985
1772883284501290800,8.910290771484375,0.3228422701358795,0.04153883829712868,0.012522737495601177
1772883284517895700,8.926895751953126,0.23075434565544128,-0.08552113175392151,0.043676864355802536
1772883284534509300,8.94350927734375,0.1644754707813263,-0.1411098688840866,0.16661348938941956
1772883284551105500,8.96010546875,0.17241671681404114,-0.048258353024721146,0.21090123057365417
1772883284567711000,8.9767109375,0.2431243658065796,0.09056077152490616,0.1638645976781845
1772883284584298500,8.993298583984375,0.3159700334072113,0.2145664244890213,0.10445795953273773
1772883284600907000,9.009906982421874,0.3715587854385376,0.22846360504627228,0.07238753139972687
1772883284617512200,9.02651220703125,0.3608686327934265,0.24434609711170197,0.035582900047302246
1772883284634116900,9.043116943359376,0.29596421122550964,0.15729780495166779,-0.055283304303884506
1772883284650722000,9.05972216796875,0.26481008529663086,0.08857546001672745,0.0022907445672899485
1772883284667327700,9.07632763671875,0.2929098904132843,0.1745547503232956,0.25992316007614136
1772883284683932200,9.09293212890625,0.33719760179519653,0.10399980843067169,0.36453384160995483
1772883284700537300,9.109537353515625,0.2782491147518158,-0.04886921867728233,0.27000242471694946
1772883284717159200,9.1261591796875,0.058948494493961334,-0.19074267148971558,0.031154127791523933
1772883284733744000,9.142744140625,-0.11636982858181,-0.18295414745807648,-0.023976460099220276
