time,seconds_elapsed,z,y,x
1772883275721353200,0.130353271484375,-0.18417587876319885,-0.2226603776216507,-0.19624045491218567
1772883275737966600,0.146966552734375,-0.20051652193069458,-0.11850785464048386,-0.21930062770843506
1772883275754579000,0.163578857421875,-0.21395555138587952,-0.026572637259960175,-0.2116648107767105
1772883275771196700,0.18019677734375,-0.2243402600288391,0.03741549700498581,-0.1849394589662552
1772883275787812000,0.19681201171875,-0.20815233886241913,0.05161811411380768,-0.18249599635601044
1772883275804414500,0.21341455078125,-0.16111570596694946,-0.02474004216492176,-0.19318613409996033
1772883275821019000,0.230018798828125,-0.12492194026708603,-0.1644754707813263,-0.19807305932044983
1772883275837622500,0.24662255859375,-0.09239336848258972,-0.2588541507720947,-0.1869247704744339
1772883275854211300,0.26321142578125,-0.06536258012056351,-0.2906191349029541,-0.15561792254447937
1772883275870835500,0.27983544921875,-0.06123924255371094,-0.3225368559360504,-0.1437060534954071
1772883275887435800,0.296435791015625,-0.05268712714314461,-0.2863430976867676,-0.18631389737129211
1772883275904045800,0.3130458984375,-0.02580905705690384,-0.19257527589797974,-0.23411411046981812
1772883275920644400,0.329644287109375,0.02321287989616394,-0.06520986557006836,-0.25671613216400146
1772883275937274400,0.3462744140625,0.052839845418930054,-0.011301007121801376,-0.25106561183929443
1772883275953843700,0.36284375,0.0507018156349659,0.0024434609804302454,-0.2047925740480423
1772883275970463500,0.37946337890625,0.042760565876960754,-0.01664607785642147,-0.14996741712093353
1772883275987069000,0.39606884765625,0.04993823543190956,-0.040622539818286896,-0.10797043144702911
1772883276003673900,0.412673828125,0.0555887371301651,-0.06536258012056351,-0.0832303911447525
1772883276020278300,0.4292783203125,0.041691552847623825,-0.07437284290790558,-0.09758572280406952
1772883276036882200,0.445882080078125,0.026114489883184433,-0.04077525436878204,-0.16035212576389313
1772883276053475300,0.462475341796875,0.014966198243200779,-0.01863138936460018,-0.2295326143503189
1772883276070094000,0.479093994140625,-0.0032070425804704428,-0.022143865004181862,-0.24923302233219147
1772883276086700000,0.495699951171875,-0.01160643994808197,-0.02474004216492176,-0.21319197118282318
1772883276103304400,0.512304443359375,-0.001832595793530345,-0.013439035043120384,-0.1592831164598465
1772883276119896600,0.528896484375,0.01924225501716137,0.03191770985722542,-0.12217304855585098
1772883276136512000,0.545511962890625,0.038637228310108185,0.06200282275676727,-0.10613783448934555
1772883276153108500,0.5621083984375,0.03497203439474106,0.08399397134780884,-0.05192354694008827
1772883276169722400,0.578722412109375,0.032681290060281754,0.11713340878486633,0.04505131021142006
1772883276186330000,0.595330078125,0.07895433157682419,0.16890424489974976,0.15943582355976105
1772883276202932700,0.6119326171875,0.14019356667995453,0.1615738570690155,0.19792033731937408
1772883276219510800,0.6285107421875,0.16768251359462738,0.13041973114013672,0.17608191072940826
1772883276236132400,0.64513232421875,0.152105450630188,0.06352998316287994,0.15454891324043274
1772883276252738300,0.66173828125,0.1368338167667389,-0.03405573591589928,0.14340060949325562
1772883276269341000,0.6783408203125,0.14385876059532166,-0.09117163717746735,0.13347405195236206
1772883276285947000,0.69494677734375,0.17287486791610718,-0.11102475970983505,0.0933096632361412
1772883276302537200,0.711537109375,0.19746218621730804,-0.09682214260101318,0.04444044828414917
1772883276319156000,0.728156005859375,0.2177734673023224,-0.07192938029766083,0.014966198243200779
1772883276335760600,0.7447607421875,0.2151772826910019,-0.06719517707824707,0.02367102913558483
1772883276352347100,0.76134716796875,0.2047925740480423,-0.11850785464048386,0.058795779943466187
1772883276368968200,0.77796826171875,0.2168571650981903,-0.10048733651638031,0.12278391420841217
1772883276385588500,0.79458837890625,0.24908030033111572,0.004428773187100887,0.1411098688840866
1772883276402197800,0.81119775390625,0.24190263450145721,0.10537425428628922,0.04764748737215996
1772883276418765300,0.827765380859375,0.16859880089759827,0.14844025671482086,-0.14676037430763245
1772883276435403500,0.844403564453125,0.02932153269648552,0.10155634582042694,-0.33368512988090515
1772883276452043500,0.86104345703125,-0.07864890247583389,0.043676864355802536,-0.3851505517959595
1772883276468612400,0.8776123046875,-0.09666942805051804,-0.006108652334660292,-0.2730567753314972
1772883276485223200,0.89422314453125,-0.027183502912521362,-0.031154127791523933,-0.06414084881544113
1772883276501822700,0.91082275390625,0.06261368840932846,0.008246680721640587,0.1963931769132614
1772883276518412300,0.927412353515625,0.1371392458677292,0.09392052888870239,0.4331034719944
1772883276535013600,0.944013671875,0.19883663952350616,0.16081027686595917,0.5484042763710022
1772883276551636500,0.960636474609375,0.24953845143318176,0.2119702398777008,0.5566509366035461
1772883276568228000,0.97722802734375,0.2617557644844055,0.16554448008537292,0.5207626223564148
1772883276584848100,0.99384814453125,0.26679539680480957,0.10842858254909515,0.503963828086853
1772883276601452300,1.010452392578125,0.2733621895313263,0.078343465924263,0.499382346868515
1772883276618062300,1.027062255859375,0.28588494658470154,0.060475658625364304,0.5210680365562439
1772883276634672000,1.043672119140625,0.3019201457500458,-0.01618792861700058,0.5218316316604614
1772883276651269000,1.06026904296875,0.3248275816440582,-0.08078692853450775,0.5274821519851685
1772883276667879400,1.07687939453125,0.3381139039993286,-0.09193521738052368,0.50335294008255
1772883276684470500,1.093470458984375,0.3266601860523224,-0.12767083942890167,0.3625485301017761
1772883276701080000,1.110080078125,0.2779437005519867,-0.16462817788124084,0.1518000066280365
1772883276717672200,1.126672119140625,0.21807889640331268,-0.1788308024406433,-0.01924225501716137
1772883276734279400,1.143279541015625,0.19898934662342072,-0.16325373947620392,-0.11468994617462158
1772883276750876700,1.159876708984375,0.20341812074184418,-0.14187344908714294,-0.14233160018920898
1772883276767488500,1.176488525390625,0.19379699230194092,-0.03695734590291977,-0.10415252298116684
1772883276784097300,1.19309716796875,0.16752979159355164,0.07192938029766083,-0.09254608303308487
1772883276800698600,1.20969873046875,0.10567969083786011,0.15546520054340363,-0.15073099732398987
1772883276817303600,1.226303466796875,0.04337143152952194,0.17272214591503143,-0.2347249686717987
1772883276833911800,1.242911865234375,-0.006261368747800589,0.14309518039226532,-0.23228150606155396
1772883276850527500,1.259527587890625,-0.006719517521560192,0.1690569519996643,-0.11499538272619247
1772883276867133000,1.2761328125,0.02321287989616394,0.11041389405727386,-0.010079276748001575
1772883276883737000,1.292737060546875,0.06551529467105865,0.04566217586398125,0.03787364438176155
1772883276900348400,1.309348388671875,0.0861319974064827,0.03940080851316452,0.04581489413976669
1772883276916937700,1.325937744140625,0.078343465924263,0.09010262042284012,0.0659734457731247
1772883276933529600,1.342529541015625,0.058948494493961334,0.09941831976175308,0.11041389405727386
1772883276950150100,1.359150146484375,0.06215553730726242,0.08307767659425735,0.1866193264722824
1772883276966761000,1.375760986328125,0.08918632566928864,0.050243668258190155,0.2393064647912979
1772883276983367200,1.3923671875,0.10659598559141159,-0.020311269909143448,0.23594669997692108
1772883276999975400,1.408975341796875,0.07528914511203766,-0.12797626852989197,0.1996002197265625
1772883277016561400,1.4255615234375,0.022143865004181862,-0.22143864631652832,0.15974126756191254
1772883277033207000,1.44220703125,-0.031612277030944824,-0.2838996350765228,0.16142113506793976
1772883277049777400,1.45877734375,-0.08109235763549805,-0.36163222789764404,0.1765400618314743
1772883277066396200,1.475396240234375,-0.10308351367712021,-0.4437935948371887,0.16752979159355164
1772883277082998300,1.491998291015625,-0.13347405195236206,-0.5002986192703247,0.10995574295520782
1772883277099601700,1.5086015625,-0.18417587876319885,-0.4954117238521576,0.026114489883184433
1772883277116195000,1.525195068359375,-0.24037547409534454,-0.4150829315185547,-0.03420845419168472
1772883277132793600,1.541793701171875,-0.27259862422943115,-0.31520646810531616,-0.031154127791523933
1772883277149412600,1.55841259765625,-0.2649627923965454,-0.18127426505088806,0.033597588539123535
1772883277166027500,1.575027587890625,-0.2509129047393799,-0.06261368840932846,0.09392052888870239
1772883277182628000,1.591628173828125,-0.26939156651496887,-0.09285151958465576,0.06230825558304787
1772883277199227100,1.60822705078125,-0.30085113644599915,-0.1823432743549347,-0.03375030308961868
1772883277215821300,1.6248212890625,-0.29657506942749023,-0.21807889640331268,-0.15500704944133759
1772883277232429000,1.641428955078125,-0.2997821271419525,-0.21868975460529327,-0.32391130924224854
1772883277249044200,1.658044189453125,-0.3349068760871887,-0.21502456068992615,-0.5587889552116394
1772883277265639200,1.67463916015625,-0.38148534297943115,-0.14248432219028473,-0.7438811659812927
1772883277282249200,1.691249267578125,-0.3969096839427948,-0.016951510682702065,-0.849255383014679
1772883277298848300,1.70784814453125,-0.3805690407752991,0.17440202832221985,-0.870330274105072
1772883277315454500,1.724454345703125,-0.3326161205768585,0.4421137273311615,-0.8790351152420044
1772883277332074000,1.741073974609375,-0.25671613216400146,0.7189884185791016,-0.935081958770752
1772883277348666600,1.75766650390625,-0.1644754707813263,0.988990843296051,-0.9770789742469788
1772883277365269200,1.774269287109375,-0.05803219974040985,1.182482361793518,-0.9900598526000977
1772883277381874700,1.790874755859375,0.08414668589830399,1.193477988243103,-0.9358455538749695
1772883277398478000,1.80747802734375,0.2535090744495392,1.0856602191925049,-0.7686212062835693
1772883277415087600,1.824087646484375,0.38011088967323303,0.8158105611801147,-0.46150869131088257
1772883277431685600,1.840685546875,0.4127921760082245,0.4668537676334381,-0.0780380368232727
1772883277448305200,1.85730517578125,0.34834590554237366,0.11591167747974396,0.24007004499435425
1772883277464916500,1.87391650390625,0.21212296187877655,-0.13866640627384186,0.35582900047302246
1772883277481516300,1.890516357421875,0.03176499158143997,-0.17776179313659668,0.2554943859577179
1772883277498122000,1.9071220703125,-0.12400564551353455,-0.07299839705228806,0.04917465150356293
1772883277514748200,1.923748046875,-0.2347249686717987,0.07620543986558914,-0.14782938361167908
1772883277531331000,1.9403310546875,-0.3043636083602905,0.15164729952812195,-0.30146199464797974
1772883277547935200,1.956935302734375,-0.2967278063297272,0.21135938167572021,-0.3819434940814972
1772883277564543200,1.973543212890625,-0.23167064785957336,0.2808452844619751,-0.39156460762023926
1772883277581146600,1.990146728515625,-0.14798210561275482,0.35216382145881653,-0.38728857040405273
1772883277597751800,2.006751708984375,-0.06750060617923737,0.3900374472141266,-0.3897320330142975
1772883277614339300,2.02333935546875,0.010231993161141872,0.34605515003204346,-0.35842517018318176
1772883277630964500,2.039964599609375,0.10125091671943665,0.20754146575927734,-0.2817615866661072
1772883277647562500,2.0565625,0.19792033731937408,0.07467827945947647,-0.19807305932044983
1772883277664175900,2.07317578125,0.25503623485565186,-0.07330382615327835,-0.13897185027599335
1772883277680772000,2.089772216796875,0.2838996350765228,-0.1488984078168869,-0.10797043144702911
1772883277697383700,2.1063837890625,0.2955060601234436,-0.15485434234142303,-0.12461651116609573
1772883277713973800,2.122973876953125,0.2811507284641266,-0.1569923609495163,-0.19043724238872528
1772883277730579200,2.1395791015625,0.26083946228027344,-0.12965615093708038,-0.2330450862646103
1772883277747182800,2.156182861328125,0.25305092334747314,-0.051312681287527084,-0.21609358489513397
1772883277763789600,2.17278955078125,0.27550023794174194,0.009468411095440388,-0.16035212576389313
1772883277780393200,2.189393310546875,0.3000875413417816,0.025961773470044136,-0.12751811742782593
1772883277796997600,2.20599755859375,0.3101668357849121,-0.004123340360820293,-0.13301590085029602
1772883277813607000,2.22260693359375,0.3003929853439331,0.029168816283345222,-0.1339322030544281
1772883277830226000,2.239225830078125,0.2695443034172058,0.14569136500358582,-0.11957687139511108
1772883277846819000,2.255819091796875,0.2719877362251282,0.28130343556404114,-0.05345070734620094
1772883277863438600,2.2724384765625,0.30283644795417786,0.36392298340797424,0.05803219974040985
1772883277880037400,2.289037353515625,0.3399465084075928,0.37461310625076294,0.17562375962734222
1772883277896641300,2.305641357421875,0.3712533414363861,0.32498031854629517,0.26145032048225403
1772883277913224200,2.32222412109375,0.35659259557724,0.1941024363040924,0.26862800121307373
1772883277929851100,2.33885107421875,0.31001409888267517,0.03894266113638878,0.20372356474399567
1772883277946451700,2.35545166015625,0.24908030033111572,-0.04245513305068016,0.12828169763088226
1772883277963066600,2.372066650390625,0.17562375962734222,-0.04886921867728233,0.09560041129589081
1772883277979665700,2.388665771484375,0.09514226019382477,-0.04993823543190956,0.09865473955869675
1772883277996279300,2.405279296875,0.013897184282541275,-0.12538009881973267,0.03222314268350601
1772883278012861700,2.42186181640625,-0.019089538604021072,-0.12232576310634613,-0.0959058403968811
1772883278029481000,2.43848095703125,-0.014202617108821869,-0.06001751124858856,-0.24663683772087097
1772883278046083300,2.455083251953125,-0.02977968007326126,-0.0633772686123848,-0.37079519033432007
1772883278062696000,2.471696044921875,-0.08827003091573715,-0.07987063378095627,-0.3602577745914459
1772883278079296000,2.4882958984375,-0.12950342893600464,-0.1287398487329483,-0.285121351480484
1772883278095908600,2.50490869140625,-0.14217889308929443,-0.2301434874534607,-0.19425514340400696
1772883278112503300,2.52150341796875,-0.1635591685771942,-0.33948835730552673,-0.03878994286060333
1772883278129115000,2.538114990234375,-0.14523321390151978,-0.394008070230484,0.2246456891298294
1772883278145714200,2.554714111328125,-0.03787364438176155,-0.39736783504486084,0.5088507533073425
1772883278162321400,2.5713212890625,0.11942415684461594,-0.4153883755207062,0.7121161818504333
1772883278178927400,2.58792724609375,0.28099802136421204,-0.4346306324005127,0.7962628602981567
1772883278195515400,2.604515380859375,0.4346306324005127,-0.3692680299282074,0.7915286421775818
1772883278212126000,2.6211259765625,0.5642867684364319,-0.25641068816185,0.7009678483009338
1772883278228725800,2.637725830078125,0.5896376967430115,-0.17669276893138885,0.5302310585975647
1772883278245333000,2.6543330078125,0.5256495475769043,-0.09697485715150833,0.3032945990562439
1772883278261945600,2.670945556640625,0.4931209683418274,0.02886338345706463,0.08949175477027893
1772883278278542600,2.68754248046875,0.46334129571914673,0.0708603709936142,-0.08628471940755844
1772883278295148500,2.7041484375,0.3758348524570465,0.016340645030140877,-0.20876319706439972
1772883278311754500,2.72075439453125,0.23671028017997742,-0.08429940044879913,-0.2840523421764374
1772883278328370400,2.737370361328125,0.13744467496871948,-0.19624045491218567,-0.35414913296699524
1772883278344977400,2.753977294921875,0.12736541032791138,-0.27550023794174194,-0.42898011207580566
1772883278361566200,2.770566162109375,0.19318613409996033,-0.25244006514549255,-0.5117523670196533
1772883278378189600,2.787189453125,0.30863967537879944,-0.1661553531885147,-0.6180428862571716
1772883278394792000,2.8037919921875,0.42898011207580566,-0.05451972410082817,-0.6528622508049011
1772883278411382300,2.82038232421875,0.4996877610683441,0.07376197725534439,-0.5920811295509338
1772883278428000500,2.83700048828125,0.517861008644104,0.154396191239357,-0.4593706727027893
1772883278444606200,2.853606201171875,0.5021312236785889,0.16768251359462738,-0.29917123913764954
1772883278461218000,2.870218017578125,0.47601673007011414,0.1385136991739273,-0.18570303916931152
1772883278477815800,2.88681591796875,0.432034432888031,0.12431107461452484,-0.12660181522369385
1772883278494421200,2.903421142578125,0.3880521357059479,0.15256360173225403,-0.08597928285598755
1772883278511024600,2.920024658203125,0.32986724376678467,0.1469130963087082,-0.05604688450694084
1772883278527629800,2.9366298828125,0.25076019763946533,0.17592918872833252,0.00015271631127689034
1772883278544222700,2.95322265625,0.1963931769132614,0.21700987219810486,0.0377209298312664
1772883278560842800,2.9698427734375,0.11698069423437119,0.18081611394882202,0.025045474991202354
1772883278577432300,2.986432373046875,-0.00427605677396059,0.09040805697441101,0.09682214260101318
1772883278594053400,3.003053466796875,-0.10659598559141159,0.0630718395113945,0.22892175614833832
1772883278610635000,3.019635009765625,-0.17088955640792847,-0.005803219974040985,0.2701551616191864
1772883278627272000,3.03627197265625,-0.24816401302814484,-0.11392636597156525,0.20082195103168488
1772883278643864600,3.052864501953125,-0.35643985867500305,-0.17318029701709747,0.11957687139511108
1772883278660474400,3.069474365234375,-0.4999932050704956,-0.16019940376281738,0.060322944074869156
1772883278677077800,3.086077880859375,-0.6730207800865173,-0.1391245573759079,0.003054326167330146
1772883278693665000,3.1026650390625,-0.8330674767494202,-0.09972374886274338,0.006872233934700489
1772883278710255000,3.119255126953125,-0.893390417098999,0.06582073122262955,0.12064588814973831
1772883278726879000,3.13587890625,-0.8399397134780884,0.2646573781967163,0.23594669997692108
1772883278743483400,3.1524833984375,-0.7666358947753906,0.3504839241504669,0.22861631214618683
1772883278760091600,3.169091552734375,-0.7409795522689819,0.32910364866256714,0.12950342893600464
1772883278776690000,3.18568994140625,-0.7744244337081909,0.26374107599258423,-0.003817907767370343
1772883278793302300,3.20230224609375,-0.8219192028045654,0.20906862616539001,-0.07437284290790558
1772883278809917400,3.21891748046875,-0.8584184050559998,0.1492038369178772,-0.05803219974040985
1772883278826522400,3.2355224609375,-0.8634580373764038,0.14340060949325562,0.011301007121801376
1772883278843125200,3.252125244140625,-0.8335255980491638,0.23411411046981812,0.0884227454662323
1772883278859734500,3.268734619140625,-0.7634288668632507,0.4411974251270294,0.20754146575927734
1772883278876323000,3.285322998046875,-0.6258314251899719,0.669966459274292,0.3553708493709564
1772883278892938500,3.3019384765625,-0.4141666293144226,0.8037459254264832,0.4970915913581848
1772883278909534700,3.31853466796875,-0.18768835067749023,0.790154218673706,0.6177374720573425
1772883278926152400,3.33515234375,-0.006261368747800589,0.607810914516449,0.7154759168624878
1772883278942753300,3.351753173828125,0.10125091671943665,0.27641651034355164,0.7762570381164551
1772883278959348700,3.3683486328125,0.13255776464939117,-0.04841107130050659,0.8248208165168762
1772883278975948800,3.38494873046875,0.08964447677135468,-0.3020728528499603,0.8038986921310425
1772883278992557000,3.40155712890625,-0.020311269909143448,-0.461355984210968,0.6860016584396362
1772883279009163800,3.418163818359375,-0.152105450630188,-0.5207626223564148,0.48747047781944275
1772883279025769000,3.43476904296875,-0.27718010544776917,-0.49785518646240234,0.22128593921661377
1772883279042370800,3.451370849609375,-0.3721696436405182,-0.39354994893074036,-0.0754418596625328
1772883279058982000,3.46798193359375,-0.437226802110672,-0.2588541507720947,-0.3061962127685547
1772883279075584000,3.484583984375,-0.4723515510559082,-0.08399397134780884,-0.46181413531303406
1772883279092188400,3.5011884765625,-0.46868637204170227,0.1014036312699318,-0.5684100985527039
1772883279108794600,3.517794677734375,-0.446389764547348,0.23273965716362,-0.6041457056999207
1772883279125412600,3.53441259765625,-0.4288274049758911,0.2721404731273651,-0.5890268087387085
1772883279142018000,3.55101806640625,-0.39538252353668213,0.2588541507720947,-0.5546656250953674
1772883279158622700,3.567622802734375,-0.34926220774650574,0.24877487123012543,-0.5253441333770752
1772883279175217400,3.584217529296875,-0.29077184200286865,0.2565633952617645,-0.5248859524726868
1772883279191815400,3.6008154296875,-0.23548854887485504,0.24236078560352325,-0.537408709526062
1772883279208432400,3.617432373046875,-0.16798794269561768,0.2275473028421402,-0.5015203952789307
1772883279225043200,3.634043212890625,-0.10262536257505417,0.16890424489974976,-0.4323398768901825
1772883279241628700,3.650628662109375,-0.04688390716910362,0.09453139454126358,-0.3197879493236542
1772883279258244600,3.66724462890625,0.02382374368607998,0.025656340643763542,-0.23839016258716583
1772883279274844200,3.68384423828125,0.07727445662021637,-0.07238753139972687,-0.19868391752243042
1772883279291453000,3.700452880859375,0.08674286305904388,-0.11270463466644287,-0.19379699230194092
1772883279308061400,3.7170615234375,0.07696902006864548,-0.1319468915462494,-0.22128593921661377
1772883279324676600,3.733676513671875,0.07391469180583954,-0.08674286305904388,-0.251218318939209
1772883279341274600,3.750274658203125,0.08506298810243607,-0.06933320313692093,-0.256868839263916
1772883279357886500,3.766886474609375,0.09208793938159943,-0.06001751124858856,-0.22663100063800812
1772883279374479000,3.78347900390625,0.08781187981367111,-0.07742717117071152,-0.20570887625217438
1772883279391115300,3.800115234375,0.0835358202457428,-0.07956519722938538,-0.1713477075099945
1772883279407683600,3.81668359375,0.09957103431224823,-0.07742717117071152,-0.12064588814973831
1772883279424301300,3.83330126953125,0.13225232064723969,-0.08628471940755844,-0.07238753139972687
1772883279440904200,3.849904296875,0.182648703455925,-0.10720685124397278,-0.02382374368607998
1772883279457513000,3.866512939453125,0.22907446324825287,-0.13698652386665344,0.025503624230623245
1772883279474136600,3.883136474609375,0.22739458084106445,-0.19394971430301666,0.06398813426494598
1772883279490691300,3.89969140625,0.17027868330478668,-0.24342979490756989,0.09422596544027328
1772883279507319600,3.916319580078125,0.06811147183179855,-0.25793784856796265,0.10354165732860565
1772883279523926500,3.932926513671875,-0.03451388701796532,-0.20326541364192963,0.10247264802455902
1772883279540534300,3.9495341796875,-0.09040805697441101,-0.07788532227277756,0.14049901068210602
1772883279557147100,3.966147216796875,-0.096211276948452,0.05803219974040985,0.21853704750537872
1772883279573745400,3.982745361328125,-0.05253441259264946,0.11636982858181,0.308792382478714
1772883279590337800,3.999337890625,0.017409659922122955,0.13759739696979523,0.4331034719944
1772883279606937300,4.015937255859375,0.10155634582042694,0.15683965384960175,0.6104071140289307
1772883279623567600,4.032567626953125,0.22067506611347198,0.17058411240577698,0.826500654220581
1772883279640161500,4.04916162109375,0.3549126982688904,0.16050484776496887,1.0047205686569214
1772883279656779800,4.06577978515625,0.4502076804637909,0.09941831976175308,1.0633636713027954
1772883279673358000,4.082358154296875,0.48517972230911255,-0.004428773187100887,1.0134254693984985
1772883279689966300,4.09896630859375,0.4619668424129486,-0.13148874044418335,0.888961672782898
1772883279706569200,4.1155693359375,0.38957929611206055,-0.24617868661880493,0.7179193496704102
1772883279723179500,4.132179443359375,0.2583959996700287,-0.3413209617137909,0.527634859085083
1772883279739781400,4.148781494140625,0.11316278576850891,-0.3546072840690613,0.3396410644054413
1772883279756392700,4.165392822265625,-0.004428773187100887,-0.2393064647912979,0.14446963369846344
1772883279772998000,4.181997802734375,-0.07360926270484924,-0.04108068719506264,-0.09162978827953339
1772883279789613600,4.198613525390625,-0.11438451707363129,0.12507465481758118,-0.3358231782913208
1772883279806219000,4.215218994140625,-0.13026700913906097,0.24572055041790009,-0.5009095072746277
1772883279822822100,4.231822265625,-0.10094548016786575,0.308792382478714,-0.5786421298980713
1772883279839428000,4.248427978515625,-0.013897184282541275,0.29733866453170776,-0.5534439086914062
1772883279856034600,4.26503466796875,0.11698069423437119,0.26511552929878235,-0.4547891616821289
1772883279872633000,4.281633056640625,0.26022860407829285,0.2379320114850998,-0.33307427167892456
1772883279889239600,4.298239501953125,0.34804046154022217,0.2070833146572113,-0.2373211532831192
1772883279905843500,4.314843505859375,0.3692680299282074,0.18448130786418915,-0.17547103762626648
1772883279922448400,4.331448486328125,0.3663664162158966,0.1794416606426239,-0.12599095702171326
1772883279939055400,4.348055419921875,0.35414913296699524,0.2096794992685318,-0.09926560521125793
1772883279955650600,4.364650634765625,0.34513887763023376,0.27000242471694946,-0.09514226019382477
1772883279972280000,4.381280029296875,0.3367394804954529,0.2915354371070862,-0.10674870014190674
1772883279988873700,4.397873779296875,0.32650747895240784,0.2814561724662781,-0.0910189226269722
1772883280005475300,4.414475341796875,0.3055853247642517,0.2496911734342575,-0.035124752670526505
1772883280022086400,4.43108642578125,0.2814561724662781,0.16890424489974976,-0.003512475173920393
1772883280038688500,4.4476884765625,0.2353358417749405,0.06887505948543549,-0.018936822190880775
1772883280055289300,4.464289306640625,0.16630806028842926,-0.005039638374000788,-0.0630718395113945
1772883280071898000,4.480898193359375,0.05925392732024193,-0.029932396486401558,-0.09269879758358002
1772883280088504300,4.49750439453125,-0.06872233748435974,-0.027030786499381065,-0.08109235763549805
1772883280105103600,4.514103515625,-0.1794416606426239,-0.0377209298312664,-0.04749477282166481
1772883280121712600,4.530712646484375,-0.2838996350765228,-0.05619960278272629,-0.03436116874217987
1772883280138315000,4.54731494140625,-0.394008070230484,-0.06750060617923737,-0.05910121276974678
1772883280154927600,4.563927734375,-0.489608496427536,-0.04993823543190956,-0.11209376901388168
1772883280171506200,4.580506103515625,-0.5387831330299377,-0.006261368747800589,-0.15134187042713165
1772883280188120000,4.5971201171875,-0.5586362481117249,0.02015855349600315,-0.15821409225463867
1772883280204725000,4.61372509765625,-0.5487096905708313,0.00366519158706069,-0.12263119965791702
1772883280221330200,4.630330078125,-0.5174028873443604,-0.0705549344420433,-0.03039054572582245
1772883280237935000,4.64693505859375,-0.43875396251678467,-0.17379115521907806,0.054825156927108765
1772883280254540000,4.6635400390625,-0.3504839241504669,-0.2713768780231476,0.11850785464048386
1772883280271145700,4.680145751953125,-0.3016147017478943,-0.3660610020160675,0.11850785464048386
1772883280287764200,4.69676416015625,-0.3159700334072113,-0.4807509481906891,0.0009162978967651725
1772883280304344000,4.713343994140625,-0.38637226819992065,-0.5876523852348328,-0.18829920887947083
1772883280320978400,4.729978515625,-0.4795292317867279,-0.5836817622184753,-0.34895676374435425
1772883280337584000,4.746584228515625,-0.5581781268119812,-0.4222606122493744,-0.3830125033855438
1772883280354178000,4.763177978515625,-0.6061310172080994,-0.154396191239357,-0.30925053358078003
1772883280370811100,4.77981103515625,-0.5613851547241211,0.2122756689786911,-0.17302757501602173
1772883280387393800,4.796393798828125,-0.3959933817386627,0.5427537560462952,0.016493361443281174
1772883280403996200,4.81299609375,-0.12889257073402405,0.6771441102027893,0.24984388053417206
1772883280420605000,4.82960498046875,0.13271047174930573,0.6159048676490784,0.44593164324760437
1772883280437211400,4.84621142578125,0.2932153046131134,0.3773620128631592,0.5804746747016907
1772883280453809700,4.8628095703125,0.3413209617137909,0.020005837082862854,0.6524040699005127
1772883280470399500,4.8793994140625,0.30512720346450806,-0.35750889778137207,0.6685920357704163
1772883280487007500,4.896007568359375,0.21273382008075714,-0.6491970419883728,0.6235406994819641
1772883280503631400,4.91263134765625,0.03787364438176155,-0.7982481718063354,0.46792277693748474
1772883280520228000,4.92922802734375,-0.2015855312347412,-0.8087855577468872,0.21334469318389893
1772883280536839700,4.945839599609375,-0.4715879559516907,-0.7338019013404846,-0.0630718395113945
1772883280553448200,4.9624482421875,-0.7162395119667053,-0.580016553401947,-0.3078760802745819
1772883280570033200,4.979033203125,-0.8837692737579346,-0.2945897579193115,-0.535881519317627
1772883280586637600,4.995637451171875,-0.982729434967041,0.11499538272619247,-0.7648032903671265
1772883280603255600,5.012255615234375,-0.9947940707206726,0.5296201705932617,-0.949895441532135
1772883280619868200,5.0288681640625,-0.9289733171463013,0.8090910315513611,-1.0239628553390503
1772883280636468700,5.04546875,-0.8089383244514465,0.9356928467750549,-0.9627236127853394
1772883280653071600,5.062071533203125,-0.655458390712738,0.9126327037811279,-0.8156577944755554
1772883280669662500,5.078662353515625,-0.4922046661376953,0.7811439037322998,-0.6666067242622375
1772883280686270700,5.095270751953125,-0.337044894695282,0.5801692605018616,-0.5656611919403076
1772883280702876000,5.1118759765625,-0.21914790570735931,0.3501785099506378,-0.48579058051109314
1772883280719484200,5.128484130859375,-0.12247848510742188,0.16982053220272064,-0.3620903789997101
1772883280736082200,5.145082275390625,-0.025503624230623245,0.0656680166721344,-0.25961771607398987
1772883280752690700,5.161690673828125,0.06582073122262955,0.028099801391363144,-0.22189679741859436
1772883280769300000,5.178300048828125,0.1270599663257599,0.021532999351620674,-0.22907446324825287
1772883280785915100,5.1949150390625,0.15622878074645996,0.03344487398862839,-0.21120665967464447
1772883280802515700,5.211515625,0.17379115521907806,0.059406645596027374,-0.19914206862449646
1772883280819128600,5.228128662109375,0.16569720208644867,0.047800205647945404,-0.23197607696056366
1772883280835730200,5.244730224609375,0.13561208546161652,0.004886921960860491,-0.289702832698822
1772883280852334000,5.261333984375,0.11575896292924881,-0.04230241850018501,-0.33460143208503723
1772883280868926200,5.27792626953125,0.12018773704767227,-0.056810468435287476,-0.3407101035118103
1772883280885542000,5.2945419921875,0.16233743727207184,-0.02122756652534008,-0.29794952273368835
1772883280902146000,5.31114599609375,0.2330450862646103,0.03329215571284294,-0.22861631214618683
1772883280918758100,5.327758056640625,0.28680121898651123,0.03527746722102165,-0.17699819803237915
1772883280935356200,5.344356201171875,0.2967278063297272,-0.0007635815418325365,-0.1437060534954071
1772883280951968800,5.36096875,0.2742784917354584,-0.035582900047302246,-0.09529497474431992
1772883280968568000,5.377568115234375,0.23396138846874237,-0.0910189226269722,-0.03481931984424591
1772883280985175000,5.394175048828125,0.18310685455799103,-0.194713294506073,0.019853120669722557
1772883281001779700,5.41077978515625,0.12980885803699493,-0.30375275015830994,0.09468411654233932
1772883281018387500,5.427387451171875,0.0633772686123848,-0.34544429183006287,0.17699819803237915
1772883281034987500,5.443987548828125,0.003359758760780096,-0.2799290120601654,0.22647829353809357
1772883281051591400,5.46059130859375,-0.018020525574684143,-0.12980885803699493,0.25274550914764404
1772883281068184800,5.477184814453125,0.001679879380390048,0.04077525436878204,0.304669052362442
1772883281084829400,5.493829345703125,0.020616702735424042,0.11621711403131485,0.40653082728385925
1772883281101409800,5.510409912109375,0.020616702735424042,0.04001167416572571,0.494189977645874
1772883281118015000,5.527014892578125,0.021380282938480377,-0.1014036312699318,0.5568036437034607
1772883281134620400,5.543620361328125,0.04886921867728233,-0.21762074530124664,0.6624833345413208
1772883281151209500,5.56020947265625,0.09804387390613556,-0.2588541507720947,0.8367326855659485
1772883281167801000,5.576801025390625,0.15225815773010254,-0.23273965716362,0.9975429177284241
1772883281184421400,5.59342138671875,0.19089539349079132,-0.15286903083324432,1.0705413818359375
1772883281201026600,5.610026611328125,0.2015855312347412,-0.07742717117071152,1.06657075881958
1772883281217631500,5.626631591796875,0.20234911143779755,-0.04902193695306778,1.0151053667068481
1772883281234236700,5.643236572265625,0.19868391752243042,-0.07467827945947647,0.9092729091644287
1772883281250841300,5.65984130859375,0.16035212576389313,-0.1437060534954071,0.7458664774894714
1772883281267480000,5.67647998046875,0.09987647086381912,-0.2246456891298294,0.5314527750015259
1772883281284065500,5.6930654296875,0.03833179548382759,-0.2730567753314972,0.3153591752052307
1772883281300671200,5.709671142578125,-0.006261368747800589,-0.2474004179239273,0.1258382350206375
1772883281317274400,5.7262744140625,-0.004428773187100887,-0.14477506279945374,-0.01817324012517929
1772883281333881000,5.742881103515625,0.023976460099220276,-0.07177666574716568,-0.1333213448524475
1772883281350485200,5.7594853515625,0.030085112899541855,-0.06276640295982361,-0.26282477378845215
1772883281367081700,5.776081787109375,0.023518312722444534,-0.07727445662021637,-0.3933972120285034
1772883281383695400,5.7926953125,0.036651913076639175,-0.05757404863834381,-0.4743368625640869
1772883281400301000,5.809301025390625,0.07513642311096191,-0.032528575509786606,-0.5109887719154358
1772883281416905200,5.8259052734375,0.13545936346054077,0.02733621932566166,-0.47479501366615295
1772883281433511000,5.842510986328125,0.19837848842144012,0.09712757170200348,-0.39767327904701233
1772883281450111200,5.859111328125,0.25671613216400146,0.15653422474861145,-0.3433062732219696
1772883281466740500,5.875740478515625,0.2848159074783325,0.17043140530586243,-0.33826664090156555
1772883281483325400,5.892325439453125,0.29764407873153687,0.17211128771305084,-0.32100969552993774
1772883281499931000,5.908930908203125,0.308792382478714,0.16783522069454193,-0.2638937830924988
1772883281516532000,5.925531982421875,0.30925053358078003,0.16798794269561768,-0.1690569519996643
1772883281533145300,5.942145263671875,0.30375275015830994,0.17409659922122955,-0.0780380368232727
1772883281549745400,5.958745361328125,0.2799290120601654,0.13866640627384186,-0.028405234217643738
1772883281566315500,5.9753154296875,0.24617868661880493,0.07696902006864548,0.05665775015950203
1772883281582955800,5.991955810546875,0.2102903574705124,-0.043676864355802536,0.1713477075099945
1772883281599557000,6.00855712890625,0.17760907113552094,-0.21120665967464447,0.2356412708759308
1772883281616169500,6.02516943359375,0.1134682223200798,-0.36682456731796265,0.2373211532831192
1772883281632768500,6.0417685546875,-0.0012217304902151227,-0.4489859640598297,0.24816401302814484
1772883281649357000,6.058357177734375,-0.11392636597156525,-0.4899139404296875,0.2571742534637451
1772883281665974000,6.07497412109375,-0.19028452038764954,-0.5102251768112183,0.2741257846355438
1772883281682572500,6.091572509765625,-0.2698497176170349,-0.4772384762763977,0.3257438838481903
1772883281699177200,6.10817724609375,-0.34834590554237366,-0.4063780903816223,0.3549126982688904
1772883281715782400,6.124782470703125,-0.4043927788734436,-0.3549126982688904,0.34956762194633484
1772883281732387600,6.1413876953125,-0.4450153410434723,-0.3706424832344055,0.3550654351711273
1772883281748995800,6.157995849609375,-0.4612032473087311,-0.3400992155075073,0.39996400475502014
1772883281765597400,6.174597412109375,-0.4833471179008484,-0.17928895354270935,0.403781920671463
1772883281782216400,6.191216552734375,-0.5128213763237,-0.012675453908741474,0.3052799105644226
1772883281798821600,6.207821533203125,-0.5232060551643372,0.13072516024112701,0.23900102078914642
1772883281815426300,6.22442626953125,-0.5206099152565002,0.17440202832221985,0.2698497176170349
1772883281832031500,6.241031494140625,-0.5227479338645935,0.1492038369178772,0.3729332387447357
1772883281848636200,6.25763623046875,-0.4889976382255554,0.06963863968849182,0.451123982667923
1772883281865237800,6.27423779296875,-0.45524731278419495,0.03237585723400116,0.4584543704986572
1772883281881846800,6.2908466796875,-0.44913867115974426,0.08506298810243607,0.3698789179325104
1772883281898448000,6.30744775390625,-0.460897833108902,0.20662516355514526,0.28848111629486084
1772883281915060500,6.324060546875,-0.45555275678634644,0.31031954288482666,0.36453384160995483
1772883281931661600,6.34066162109375,-0.42042800784111023,0.2987131178379059,0.5677992701530457
1772883281948253400,6.35725341796875,-0.3139847218990326,0.18585574626922607,0.8414669036865234
1772883281964851700,6.373851806640625,-0.2021963894367218,0.08139779418706894,1.084285855293274
1772883281981476900,6.390476806640625,-0.16004669666290283,-0.15760323405265808,1.1464413404464722
1772883281998078000,6.407077880859375,-0.19898934662342072,-0.39996400475502014,1.0743592977523804
1772883282014690600,6.423690673828125,-0.3150537610054016,-0.5699372887611389,0.9240863919258118
1772883282031292200,6.440292236328125,-0.48716503381729126,-0.707840085029602,0.7533495426177979
1772883282047901200,6.456901123046875,-0.6244570016860962,-0.7528914213180542,0.5884159207344055
1772883282064526300,6.4735263671875,-0.6806566119194031,-0.7162395119667053,0.446389764547348
1772883282081102000,6.49010205078125,-0.6638578176498413,-0.5487096905708313,0.33658674359321594
1772883282097709600,6.50670947265625,-0.6485861539840698,-0.379652738571167,0.2474004179239273
1772883282114319600,6.523319580078125,-0.6818783283233643,-0.304669052362442,0.16554448008537292
1772883282130904600,6.539904541015625,-0.7067710757255554,-0.2922990322113037,0.04612032696604729
1772883282147512000,6.556511962890625,-0.6863071322441101,-0.24419337511062622,-0.059864792972803116
1772883282164105200,6.573105224609375,-0.6155994534492493,-0.19578230381011963,-0.08628471940755844
1772883282180726300,6.589726318359375,-0.5248859524726868,-0.235030397772789,-0.012675453908741474
1772883282197328400,6.606328369140625,-0.4285219609737396,-0.2977968156337738,0.10430523753166199
1772883282213933600,6.62293359375,-0.342237263917923,-0.389426589012146,0.1394299864768982
1772883282230538500,6.63953857421875,-0.2715296149253845,-0.5141957998275757,0.06169738993048668
1772883282247161900,6.656161865234375,-0.2603813111782074,-0.6023131608963013,-0.026114489883184433
1772883282263772700,6.672772705078125,-0.25595253705978394,-0.5155702829360962,-0.0074830991216003895
1772883282280367000,6.6893671875,-0.24465152621269226,-0.4505131244659424,0.06505715101957321
1772883282296969500,6.705969482421875,-0.2295326143503189,-0.446389764547348,0.16691893339157104
1772883282313565000,6.72256494140625,-0.16554448008537292,-0.43829581141471863,0.25182920694351196
1772883282330182100,6.73918212890625,-0.06475171446800232,-0.3781255781650543,0.20891591906547546
1772883282346770700,6.755770751953125,0.004886921960860491,-0.3523165285587311,0.05146539583802223
1772883282363389700,6.7723896484375,0.019089538604021072,-0.35063666105270386,-0.08597928285598755
1772883282379997400,6.78899755859375,0.01664607785642147,-0.2730567753314972,-0.0981965884566307
1772883282396605000,6.80560498046875,0.05146539583802223,-0.13759739696979523,-0.07391469180583954
1772883282413192700,6.822192626953125,0.07849618047475815,-0.04184427112340927,-0.1313360333442688
1772883282429812200,6.838812255859375,0.0754418596625328,0.01237002108246088,-0.19425514340400696
1772883282446428400,6.855428466796875,0.10552696883678436,0.08903361111879349,-0.15256360173225403
1772883282463023400,6.8720234375,0.15393804013729095,0.05360342562198639,-0.03191770985722542
1772883282479626500,6.88862646484375,0.17272214591503143,-0.05115996301174164,0.055894169956445694
1772883282496226300,6.905226318359375,0.17058411240577698,-0.14935655891895294,0.062460970133543015
1772883282512844300,6.92184423828125,0.16294831037521362,-0.22403483092784882,0.02825251780450344
1772883282529442600,6.938442626953125,0.14309518039226532,-0.2422080636024475,0.02382374368607998
1772883282546047700,6.9550478515625,0.13484850525856018,-0.1598939746618271,0.03405573591589928
1772883282562653700,6.97165380859375,0.17272214591503143,-0.040622539818286896,0.060322944074869156
1772883282579257900,6.9882578125,0.2050980031490326,-0.02519819140434265,0.0731511116027832
1772883282595862000,7.004862060546875,0.2096794992685318,0.022449297830462456,0.1085812970995903
1772883282612449300,7.02144921875,0.17669276893138885,0.18325957655906677,0.14309518039226532
1772883282629059300,7.038059326171875,0.12599095702171326,0.38240164518356323,0.13026700913906097
1772883282645664300,7.054664306640625,0.10170906037092209,0.44394633173942566,0.03222314268350601
1772883282662269400,7.07126953125,0.05100724846124649,0.21395555138587952,-0.1693623960018158
1772883282678874600,7.08787451171875,-0.0503963828086853,-0.11972958594560623,-0.33078351616859436
1772883282695477200,7.104477294921875,-0.12660181522369385,-0.24846944212913513,-0.33719760179519653
1772883282712087000,7.121087158203125,-0.12736541032791138,-0.08659014850854874,-0.194713294506073
1772883282728689400,7.137689453125,-0.056810468435287476,0.182648703455925,0.06062837690114975
1772883282745312000,7.15431201171875,0.018936822190880775,0.3819434940814972,0.32360586524009705
1772883282761918200,7.170918212890625,0.1333213448524475,0.41722095012664795,0.4534147381782532
1772883282778513000,7.187512939453125,0.25534167885780334,0.38408151268959045,0.4723515510559082
1772883282795123700,7.204123779296875,0.351400226354599,0.166460782289505,0.394008070230484
1772883282811729400,7.2207294921875,0.4080579876899719,-0.1007927656173706,0.3364340364933014
1772883282828332800,7.237332763671875,0.41431936621665955,-0.20784689486026764,0.3614795207977295
1772883282844938200,7.253938232421875,0.4144720733165741,-0.20112738013267517,0.3962988257408142
1772883282861506300,7.27050634765625,0.41370847821235657,-0.18829920887947083,0.4132503271102905
1772883282878152400,7.28715234375,0.41111230850219727,-0.16630806028842926,0.3724750876426697
1772883282894751700,7.303751708984375,0.379652738571167,-0.16737708449363708,0.21135938167572021
1772883282911361300,7.320361328125,0.2941316068172455,-0.24388794600963593,-0.029626963660120964
1772883282927963400,7.33696337890625,0.20463985204696655,-0.327729195356369,-0.2102903574705124
1772883282944569000,7.353569091796875,0.14569136500358582,-0.270766019821167,-0.2545780837535858
1772883282961169400,7.37016943359375,0.12186761945486069,-0.07223481684923172,-0.20754146575927734
1772883282977782800,7.38678271484375,0.09483683109283447,0.13668109476566315,-0.16691893339157104
1772883282994386200,7.40338623046875,0.0630718395113945,0.1739438772201538,-0.19349156320095062
1772883283010987800,7.41998779296875,0.04948008432984352,0.1088867336511612,-0.2145664244890213
1772883283027593700,7.43659375,0.0507018156349659,0.05619960278272629,-0.22281309962272644
1772883283044199200,7.45319921875,0.0630718395113945,0.03237585723400116,-0.2571742534637451
1772883283060804000,7.46980419921875,0.07712173461914062,0.09636399149894714,-0.2886338233947754
1772883283077404700,7.48640478515625,0.08048149943351746,0.15653422474861145,-0.3081815242767334
1772883283094015500,7.503015380859375,0.06734789162874222,0.18707747757434845,-0.2768746614456177
1772883283110605000,7.51960498046875,0.06994406878948212,0.1742493063211441,-0.194713294506073
1772883283127210200,7.536210205078125,0.10018189996480942,0.0780380368232727,-0.11667526513338089
1772883283143815400,7.5528154296875,0.14706580340862274,-0.02580905705690384,-0.09285151958465576
1772883283160420600,7.569420654296875,0.16798794269561768,-0.09193521738052368,-0.1498146951198578
1772883283177022200,7.586022216796875,0.1488984078168869,-0.12858712673187256,-0.25854870676994324
1772883283193637000,7.60263720703125,0.11728613078594208,-0.15974126756191254,-0.31093040108680725
1772883283210232300,7.619232421875,0.09040805697441101,-0.17669276893138885,-0.2938261926174164
1772883283226839800,7.63583984375,0.05864306539297104,-0.14767667651176453,-0.2612976133823395
1772883283243464000,7.6524638671875,0.016493361443281174,-0.152105450630188,-0.25182920694351196
1772883283260061200,7.669061279296875,-0.010079276748001575,-0.1612684279680252,-0.2356412708759308
1772883283276669700,7.685669677734375,-0.02122756652534008,-0.1394299864768982,-0.2220495194196701
1772883283293278000,7.70227783203125,-0.019089538604021072,-0.11148291081190109,-0.22067506611347198
1772883283309880000,7.718880126953125,-0.031154127791523933,-0.11743884533643723,-0.19822576642036438
1772883283326484700,7.735484619140625,-0.043676864355802536,-0.10552696883678436,-0.11667526513338089
1772883283343089700,7.752089599609375,-0.06291911751031876,-0.08720101416110992,-0.02519819140434265
1772883283359690500,7.7686904296875,-0.08032877743244171,-0.08903361111879349,0.019089538604021072
1772883283376310500,7.785310546875,-0.0659734457731247,-0.06108652427792549,0.013439035043120384
1772883283392894000,7.80189404296875,-0.044287730008363724,-0.02733621932566166,-0.01878410577774048
1772883283409514200,7.81851416015625,-0.078343465924263,-0.13408492505550385,-0.0858265683054924
1772883283426115000,7.835114990234375,-0.13500121235847473,-0.3335324227809906,-0.1716531366109848
1772883283442719700,7.8517197265625,-0.20128010213375092,-0.49128836393356323,-0.20005837082862854
1772883283459324700,7.86832470703125,-0.26679539680480957,-0.5290092825889587,-0.13225232064723969
1772883283475924500,7.884924560546875,-0.3448334336280823,-0.41172316670417786,-0.08017606288194656
1772883283492540200,7.9015400390625,-0.39797869324684143,-0.15806138515472412,-0.11194105446338654
1772883283509141000,7.91814111328125,-0.42470407485961914,0.18738290667533875,-0.18249599635601044
1772883283525745200,7.9347451171875,-0.42012256383895874,0.3465133011341095,-0.2396118938922882
1772883283542350000,7.95135009765625,-0.4138612151145935,0.29107728600502014,-0.17256943881511688
1772883283558951200,7.967951171875,-0.42791110277175903,0.08918632566928864,-0.029474247246980667
1772883283575560700,7.984560791015625,-0.4639521539211273,-0.17272214591503143,0.0757472887635231
1772883283592166100,8.001166259765625,-0.5361869931221008,-0.3871358633041382,0.1238529309630394
1772883283608756000,8.017755859375,-0.598953366279602,-0.4512766897678375,0.12980885803699493
1772883283625361700,8.034361572265626,-0.6377432942390442,-0.3851505517959595,0.08292495459318161
1772883283641966600,8.050966552734375,-0.669355571269989,-0.3116939961910248,-0.06520986557006836
1772883283658571800,8.06757177734375,-0.6919575929641724,-0.2721404731273651,-0.2704605758190155
1772883283675178200,8.08417822265625,-0.6885978579521179,-0.2099849283695221,-0.4001167416572571
1772883283691780400,8.1007802734375,-0.6531676650047302,-0.13118331134319305,-0.427452951669693
1772883283708386800,8.11738671875,-0.5780312418937683,-0.05314527451992035,-0.38667771220207214
1772883283724995300,8.133995361328125,-0.5103778839111328,0.04092797264456749,-0.3355177342891693
1772883283741611000,8.150611083984375,-0.4772384762763977,0.05497787147760391,-0.33597588539123535
1772883283758211300,8.16721142578125,-0.4648684561252594,0.0032070425804704428,-0.36483925580978394
1772883283774825200,8.1838251953125,-0.4317290186882019,-0.06383541971445084,-0.36850446462631226
1772883283791425800,8.20042578125,-0.3625485301017761,-0.1111774742603302,-0.34926220774650574
1772883283808030700,8.21703076171875,-0.2733621895313263,-0.14935655891895294,-0.35216382145881653
1772883283824635600,8.2336357421875,-0.21533000469207764,-0.14645494520664215,-0.36422839760780334
1772883283841241000,8.250240966796875,-0.19074267148971558,-0.11789698898792267,-0.33719760179519653
1772883283857845800,8.266845703125,-0.1797471046447754,-0.06627888232469559,-0.2744311988353729
1772883283874451500,8.283451416015625,-0.17119498550891876,-0.06658431142568588,-0.2252565622329712
1772883283891057200,8.30005712890625,-0.156686931848526,-0.11988230794668198,-0.22021691501140594
1772883283907651800,8.31665185546875,-0.12629638612270355,-0.14309518039226532,-0.22250767052173615
1772883283924266800,8.333266845703125,-0.09086620807647705,-0.0910189226269722,-0.21242839097976685
1772883283940871000,8.349870849609376,-0.058948494493961334,-0.02428189292550087,-0.19043724238872528
1772883283957472300,8.36647216796875,-0.018020525574684143,0.012217304669320583,-0.17531833052635193
1772883283974085000,8.383085205078125,0.017562376335263252,-0.02871066704392433,-0.13316862285137177
1772883283990686500,8.3996865234375,0.06734789162874222,-0.08567385375499725,-0.07070764899253845
1772883284007292000,8.4162919921875,0.1287398487329483,-0.10720685124397278,-0.0708603709936142
1772883284023896300,8.432896240234374,0.19135354459285736,-0.07788532227277756,-0.14340060949325562
1772883284040501800,8.449501708984375,0.23686300218105316,-0.018325956538319588,-0.19715675711631775
1772883284057106200,8.466106201171876,0.3039054572582245,0.11682797968387604,-0.14782938361167908
1772883284073711600,8.482711669921875,0.31673362851142883,0.244804248213768,-0.021380282938480377
1772883284090299600,8.499299560546875,0.266642689704895,0.35735616087913513,-0.021074850112199783
1772883284106908200,8.515908203125,0.19394971430301666,0.2721404731273651,-0.25244006514549255
1772883284123513300,8.532513427734376,0.12476922571659088,0.11911872029304504,-0.5383250117301941
1772883284140118000,8.549117919921875,0.11713340878486633,-0.0006108652451075613,-0.6856962442398071
1772883284156724200,8.56572412109375,0.12980885803699493,-0.012828170321881771,-0.6062837839126587
1772883284173326800,8.582326904296876,0.1615738570690155,0.04337143152952194,-0.40653082728385925
1772883284189933300,8.598933349609375,0.23167064785957336,0.22770002484321594,-0.11652254313230515
1772883284206538200,8.615538330078126,0.31230485439300537,0.35613444447517395,0.20387627184391022
1772883284223160300,8.632160400390624,0.3715587854385376,0.36621370911598206,0.46273043751716614
1772883284239761700,8.64876171875,0.40943244099617004,0.3439171314239502,0.5991060733795166
1772883284256372200,8.665372314453125,0.4447098970413208,0.294895201921463,0.599564254283905
1772883284272967200,8.68196728515625,0.4784601926803589,0.2165517359972,0.5491678714752197
1772883284289576700,8.69857666015625,0.4830417037010193,0.1033889427781105,0.5143485069274902
1772883284306182400,8.715182373046876,0.483957976102829,0.040622539818286896,0.46593746542930603
1772883284322787000,8.731787109375,0.4709770977497101,0.019853120669722557,0.3500257730484009
1772883284339392000,8.74839208984375,0.45142942667007446,-0.01618792861700058,0.22708915174007416
1772883284355991600,8.764991455078125,0.41523563861846924,-0.007941247895359993,0.13576480746269226
1772883284372608300,8.781608154296874,0.4101960062980652,0.06475171446800232,0.059406645596027374
1772883284389207000,8.79820703125,0.40714168548583984,0.1696678251028061,-0.02367102913558483
1772883284405812700,8.814812744140625,0.38026362657546997,0.2376265823841095,-0.07757988572120667
1772883284422417200,8.831417236328125,0.3539963960647583,0.23273965716362,-0.010842857882380486
1772883284439022000,8.84802197265625,0.39614611864089966,0.23777928948402405,0.11239920556545258
1772883284455630800,8.864630859375,0.4346306324005127,0.21624629199504852,0.17104226350784302
1772883284472229000,8.88122900390625,0.4291328489780426,0.14446963369846344,0.1134682223200798
1772883284488838100,8.897838134765625,0.38759398460388184,0.08292495459318161,0.04444044828414917
1772883284505442600,8.914442626953125,0.2968805134296417,0.013439035043120384,0.01038470957428217
1772883284522047700,8.9310478515625,0.20983220636844635,-0.11362093687057495,0.07269296050071716
1772883284538652700,8.947652587890625,0.15729780495166779,-0.12400564551353455,0.18936823308467865
1772883284555253000,8.9642529296875,0.18585574626922607,-0.01817324012517929,0.2054034322500229
1772883284571864600,8.980864501953125,0.2623666226863861,0.12919799983501434,0.15042556822299957
1772883284588454000,8.997453857421876,0.33200526237487793,0.22510384023189545,0.09147707372903824
1772883284605059300,9.014059326171875,0.37430769205093384,0.22999076545238495,0.07131851464509964
1772883284621664300,9.030664306640626,0.34605515003204346,0.2405281960964203,0.013133603148162365
1772883284638269200,9.047269287109375,0.280539870262146,0.12064588814973831,-0.058184914290905
1772883284654874400,9.063874267578125,0.26633724570274353,0.11942415684461594,0.06291911751031876
1772883284671479600,9.0804794921875,0.3023782968521118,0.17272214591503143,0.3043636083602905
1772883284688084500,9.09708447265625,0.3404046595096588,0.06475171446800232,0.3594942092895508
1772883284704689700,9.113689697265626,0.23350323736667633,-0.08689557760953903,0.21670444309711456
1772883284721311500,9.1303115234375,-0.001679879380390048,-0.2073887437582016,-0.012980886735022068
