time,seconds_elapsed,z,y,x
1772883275758736400,0.167736328125,9.480961799621582,2.791825771331787,0.597607433795929
1772883275775344600,0.1843447265625,9.312865257263184,2.8049862384796143,0.5126622319221497
1772883275791961600,0.200961669921875,9.144171714782715,2.771486759185791,0.259621262550354
1772883275808563700,0.217563720703125,9.080163955688477,2.848057270050049,0.18903298676013947
1772883275825169700,0.234169677734375,9.21834945678711,2.9108686447143555,0.2841476798057556
1772883275841773600,0.250773681640625,9.390034675598145,2.988635540008545,0.4127618968486786
1772883275858378200,0.267378173828125,9.509675025939941,3.012563705444336,0.5132604837417603
1772883275874992600,0.28399267578125,9.45164966583252,3.0831520557403564,0.5808576941490173
1772883275891588900,0.3005888671875,9.480961799621582,3.035893678665161,0.5419743061065674
1772883275908196900,0.31719677734375,9.533005714416504,3.022733211517334,0.46002015471458435
1772883275924787000,0.333786865234375,9.425328254699707,3.146561861038208,0.45224347710609436
1772883275941403400,0.3504033203125,9.328418731689453,3.250051259994507,0.5060819983482361
1772883275958008600,0.367008544921875,9.248857498168945,3.3792638778686523,0.4456632137298584
1772883275974614300,0.3836142578125,9.037691116333008,3.3828530311584473,0.31764721870422363
1772883275991223000,0.40022314453125,8.892925262451172,3.3960134983062744,0.20817556977272034
1772883276007825700,0.41682568359375,8.810373306274414,3.4815568923950195,0.23330020904541016
1772883276024427000,0.433427001953125,8.714061737060547,3.5084762573242188,0.2721835672855377
1772883276041034800,0.45003466796875,8.667402267456055,3.4552359580993652,0.28175488114356995
1772883276057621800,0.466621826171875,8.874381065368652,3.404388427734375,0.36670008301734924
1772883276074233000,0.483233154296875,9.20698356628418,3.2787652015686035,0.38285163044929504
1772883276090848800,0.499848876953125,9.395418167114258,3.1992039680480957,0.357128769159317
1772883276107452200,0.5164521484375,9.497113227844238,3.1094729900360107,0.3655036687850952
1772883276124061400,0.5330615234375,9.42173957824707,3.098107099533081,0.45643091201782227
1772883276140662000,0.549662109375,9.537193298339844,3.1034910678863525,0.5946164131164551
1772883276157269200,0.566269287109375,9.729216575622559,3.104687452316284,0.6939185857772827
1772883276173877800,0.582877685546875,9.69212818145752,3.0000014305114746,0.5455635786056519
1772883276190478000,0.59947802734375,9.288339614868164,3.0448668003082275,0.3613162338733673
1772883276207080400,0.61608056640625,8.973084449768066,3.2997024059295654,0.4462614357471466
1772883276223675000,0.6326748046875,8.898308753967285,3.5030922889709473,0.6059823632240295
1772883276240281300,0.64928125,8.993423461914062,3.551547050476074,0.6729813814163208
1772883276256884700,0.665884765625,9.161520004272461,3.4911282062530518,0.6287141442298889
1772883276273490700,0.68249072265625,9.354142189025879,3.3984062671661377,0.5359922647476196
1772883276290096000,0.69909619140625,9.56052303314209,3.3954153060913086,0.5778666734695435
1772883276306699800,0.71569970703125,9.754341125488281,3.3104701042175293,0.6813562512397766
1772883276323305200,0.73230517578125,10.043872833251953,3.452244758605957,0.7573283910751343
1772883276339911200,0.7489111328125,10.354341506958008,3.4887354373931885,0.7890332937240601
1772883276356527900,0.76552783203125,10.757532119750977,3.4121651649475098,0.7525427341461182
1772883276373137400,0.782137451171875,10.87837028503418,3.534797191619873,0.5473581552505493
1772883276389738200,0.79873828125,10.625926971435547,3.7423746585845947,0.5647061467170715
1772883276406343400,0.815343505859375,10.37767219543457,3.7567315101623535,0.7716853022575378
1772883276422948000,0.831947998046875,10.483553886413574,3.555734395980835,0.9852447509765625
1772883276439552800,0.848552734375,10.987841606140137,2.9252257347106934,0.9296116232872009
1772883276456157000,0.865156982421875,11.497512817382812,2.1535403728485107,0.519242525100708
1772883276472764700,0.8817646484375,11.743973731994629,1.6055840253829956,0.035892341285943985
1772883276489367800,0.898367919921875,11.757134437561035,1.3435698747634888,-0.15314064919948578
1772883276505975300,0.914975341796875,11.352746963500977,1.2245270013809204,-0.12741780281066895
1772883276522579000,0.931578857421875,10.524231910705566,1.28255295753479,-0.12263216078281403
1772883276539183900,0.948183837890625,9.589835166931152,1.358525037765503,-0.12622138857841492
1772883276555788800,0.964788818359375,8.950352668762207,1.5182459354400635,-0.08315058797597885
1772883276572394000,0.98139404296875,8.8109712600708,1.551147222518921,-0.12502498924732208
1772883276588997400,0.997997314453125,8.86361312866211,1.5415760278701782,-0.09212367236614227
1772883276605603300,1.014603271484375,9.06999397277832,1.5248262882232666,-0.10289137065410614
1772883276622216000,1.0312158203125,9.08255672454834,1.5876377820968628,-0.1740778535604477
1772883276638812200,1.047812255859375,9.105886459350586,1.5978072881698608,-0.2267199456691742
1772883276655418000,1.064418212890625,9.062217712402344,1.654038667678833,-0.13998012244701385
1772883276672053500,1.081053466796875,8.72901725769043,1.827518343925476,-0.09391828626394272
1772883276688627500,1.09762744140625,8.496912956237793,2.0338993072509766,0.11904292553663254
1772883276705225500,1.1142255859375,8.798408508300781,2.0691933631896973,0.251844584941864
1772883276721823200,1.1308232421875,9.231510162353516,1.9405791759490967,0.20997019112110138
1772883276738424800,1.1474248046875,9.552745819091797,1.8915263414382935,0.20338992774486542
1772883276755039200,1.164039306640625,9.79262638092041,1.9537396430969238,0.4654040038585663
1772883276771639300,1.180639404296875,9.6466646194458,2.128415822982788,0.5724828243255615
1772883276788254500,1.19725439453125,9.164510726928711,2.3611178398132324,0.7393822073936462
1772883276804850400,1.213850341796875,8.779266357421875,2.4675984382629395,0.6801598072052002
1772883276821454800,1.230454833984375,8.894122123718262,2.4460630416870117,0.5551348328590393
1772883276838075000,1.247074951171875,9.17886734008789,2.2540390491485596,0.42293140292167664
1772883276854678000,1.263677978515625,9.06401252746582,2.1918256282806396,0.2273181527853012
1772883276871290000,1.2802900390625,8.732605934143066,2.2085752487182617,0.09511470049619675
1772883276887891700,1.2968916015625,8.506484031677246,2.310868501663208,0.15972091257572174
1772883276904465000,1.31346484375,8.48016357421875,2.486142635345459,0.357128769159317
1772883276921093000,1.330093017578125,8.468199729919434,2.6386852264404297,0.4061816334724426
1772883276937676800,1.3466767578125,8.495118141174316,2.7020950317382812,0.28175488114356995
1772883276954311200,1.363311279296875,8.357531547546387,2.830709218978882,0.16869398951530457
1772883276970914000,1.3799140625,8.058428764343262,2.9617161750793457,0.17168502509593964
1772883276987513300,1.396513427734375,7.963912010192871,3.2267212867736816,0.3607180118560791
1772883277004124400,1.41312451171875,7.999206066131592,3.4271202087402344,0.4863412082195282
1772883277020726500,1.4297265625,8.321639060974121,3.593421459197998,0.5096712112426758
1772883277037310500,1.446310546875,8.618349075317383,3.6293137073516846,0.6227321028709412
1772883277053921800,1.462921875,8.6907320022583,3.601198196411133,0.6460621356964111
1772883277070542300,1.479542236328125,8.82951545715332,3.649054527282715,0.7938188910484314
1772883277087146200,1.496146240234375,9.144769668579102,3.7561333179473877,1.0031908750534058
1772883277103754200,1.512754150390625,9.524032592773438,3.7537405490875244,1.168893814086914
1772883277120356000,1.529356201171875,9.875179290771484,3.6526436805725098,1.1850453615188599
1772883277136961300,1.545961181640625,10.091131210327148,3.5742788314819336,1.0492527484893799
1772883277153552000,1.5625517578125,10.063613891601562,3.7190446853637695,0.9218349456787109
1772883277170171600,1.579171630859375,9.715457916259766,3.920639991760254,0.9391828775405884
1772883277186775800,1.59577587890625,9.614361763000488,4.17427921295166,0.8368897438049316
1772883277203380200,1.612380126953125,9.625128746032715,4.305285930633545,0.6317051649093628
1772883277219975000,1.628974853515625,9.728020668029785,4.180859565734863,0.7214360237121582
1772883277236578300,1.645578369140625,9.653244972229004,3.9152560234069824,0.9589236974716187
1772883277253182000,1.662181884765625,9.853643417358398,3.527618885040283,1.1988041400909424
1772883277269793500,1.67879345703125,10.04686450958252,2.9832515716552734,1.308275818824768
1772883277286392300,1.695392333984375,10.137791633605957,2.4388844966888428,1.2801600694656372
1772883277302999300,1.711999267578125,10.039685249328613,2.0368902683258057,1.153340458869934
1772883277319604500,1.7286044921875,9.623334884643555,1.7042878866195679,0.9379864931106567
1772883277336195300,1.7451953125,9.33739185333252,1.5170495510101318,0.5886343717575073
1772883277352814000,1.76181396484375,9.184849739074707,1.3986048698425293,0.268594354391098
1772883277369416400,1.77841650390625,9.336793899536133,1.1012966632843018,-0.031106693670153618
1772883277386026200,1.795026123046875,9.553942680358887,0.8949156403541565,-0.2967100143432617
1772883277402629000,1.811629150390625,9.865009307861328,0.9032905697822571,-0.28893333673477173
1772883277419248600,1.82824853515625,10.050453186035156,0.9906286001205444,-0.1986042857170105
1772883277435842800,1.8448427734375,9.952945709228516,1.1694921255111694,0.047258246690034866
1772883277452440800,1.86144091796875,9.614959716796875,1.4362918138504028,0.36670008301734924
1772883277469058800,1.878058837890625,9.269196510314941,1.6115660667419434,0.656829833984375
1772883277485670700,1.894670654296875,9.224929809570312,1.6875381469726562,0.6867401003837585
1772883277502279000,1.91127880859375,9.327820777893066,1.4799607992172241,0.46899324655532837
1772883277518877400,1.92787744140625,9.497711181640625,1.2496516704559326,0.16031911969184875
1772883277535482600,1.944482666015625,9.681360244750977,1.0157532691955566,-0.24406790733337402
1772883277552080000,1.961079833984375,9.750154495239258,0.8321040868759155,-0.5234299302101135
1772883277568694800,1.97769482421875,9.515059471130371,0.8207381963729858,-0.6323033571243286
1772883277585297400,1.99429736328125,9.201001167297363,0.9846464991569519,-0.576670229434967
1772883277601910000,2.010909912109375,9.066405296325684,1.2705888748168945,-0.664606511592865
1772883277618504700,2.027504638671875,9.049057006835938,1.4003994464874268,-0.735194742679596
1772883277635115500,2.044115478515625,8.875576972961426,1.4464613199234009,-0.7627122402191162
1772883277651699700,2.06069970703125,8.749356269836426,1.6348960399627686,-0.5162515044212341
1772883277668321300,2.0773212890625,8.755936622619629,1.848455548286438,-0.3284149169921875
1772883277684911000,2.0939111328125,8.677571296691895,1.9806588888168335,-0.1788634955883026
1772883277701516500,2.1105166015625,8.547162055969238,2.1068804264068604,0.004785645287483931
1772883277718122800,2.127122802734375,8.734400749206543,2.145763635635376,0.15194423496723175
1772883277734730500,2.14373046875,9.06999397277832,2.1302103996276855,0.20757736265659332
1772883277751333400,2.16033349609375,9.325428009033203,2.0039889812469482,0.15254244208335876
1772883277767944200,2.176944091796875,9.319445610046387,2.028515338897705,0.0526420995593071
1772883277784541700,2.193541748046875,9.227322578430176,2.080559253692627,0.029312077909708023
1772883277801149700,2.210149658203125,9.432506561279297,2.14935302734375,0.06699903309345245
1772883277817769700,2.226769775390625,9.725028991699219,2.1415762901306152,0.2183450609445572
1772883277834371600,2.24337158203125,10.026525497436523,2.1164517402648926,0.15912270545959473
1772883277850952200,2.2599521484375,10.25623607635498,2.08713960647583,-0.0005982056609354913
1772883277867580700,2.27658056640625,10.231111526489258,2.1158533096313477,-0.06699903309345245
1772883277884192000,2.29319189453125,10.103095054626465,2.282752752304077,-0.1178465187549591
1772883277900797200,2.309797119140625,9.802796363830566,2.4993033409118652,-0.08554340898990631
1772883277917399000,2.32639892578125,9.675378799438477,2.674577474594116,-0.064606212079525
1772883277934003000,2.3430029296875,9.829715728759766,2.6225335597991943,0.04905286431312561
1772883277950593300,2.35959326171875,10.220343589782715,2.4879374504089355,0.11306086927652359
1772883277967213800,2.3762138671875,10.61695384979248,2.506481647491455,0.08673982322216034
1772883277983818000,2.39281787109375,10.671989440917969,2.6039891242980957,-0.05144568532705307
1772883278000420900,2.4094208984375,10.8430757522583,2.6213371753692627,-0.20518454909324646
1772883278017025500,2.426025634765625,11.267203330993652,2.6835505962371826,-0.25064817070961
1772883278033632500,2.442632568359375,11.726625442504883,2.665006160736084,-0.243469700217247
1772883278050221600,2.4592216796875,12.393625259399414,2.4161527156829834,0.004187439568340778
1772883278066839800,2.47583984375,12.582657814025879,1.8287147283554077,0.14715859293937683
1772883278083448000,2.492447998046875,12.238689422607422,1.058824062347412,0.1866401731967926
1772883278100052700,2.509052734375,12.062817573547363,0.49232324957847595,0.18783657252788544
1772883278116653300,2.5256533203125,12.005987167358398,0.10588239878416061,-0.058624155819416046
1772883278133279000,2.542279052734375,11.416754722595215,-0.24646073579788208,-0.46420758962631226
1772883278149870600,2.55887060546875,10.377073287963867,-0.29312077164649963,-0.8075776696205139
1772883278166470100,2.57547021484375,9.196215629577637,-0.13698910176753998,-0.9385846853256226
1772883278183076600,2.59207666015625,8.35992431640625,0.07836493849754333,-0.8943174481391907
1772883278199667200,2.608667236328125,7.720442295074463,0.26201409101486206,-0.8315058946609497
1772883278216283000,2.625282958984375,7.332206726074219,0.6382854580879211,-0.5204389095306396
1772883278232881700,2.641881591796875,7.2436723709106445,0.8877372145652771,-0.1453639715909958
1772883278249483500,2.6584833984375,7.444669246673584,0.9326026439666748,-0.05503492057323456
1772883278266092000,2.675092041015625,7.707281589508057,0.9170492887496948,-0.1621137410402298
1772883278282689800,2.691689697265625,8.079963684082031,1.0013962984085083,-0.06759724020957947
1772883278299299300,2.70829931640625,8.539385795593262,1.0247262716293335,0.02512463741004467
1772883278315920100,2.724920166015625,8.817551612854004,0.900897741317749,-0.2309073805809021
1772883278332523000,2.74152294921875,9.028120040893555,0.7250252366065979,-0.7016952633857727
1772883278349126100,2.758126220703125,9.236295700073242,0.4821537733078003,-1.1114661693572998
1772883278365733000,2.774733154296875,9.303893089294434,0.37447673082351685,-1.3226326704025269
1772883278382337300,2.791337158203125,9.638289451599121,0.3966103494167328,-1.2861422300338745
1772883278398942200,2.807942138671875,10.056435585021973,0.46002015471458435,-0.8482556343078613
1772883278415547100,2.824547119140625,10.269994735717773,0.6795616149902344,-0.4701896607875824
1772883278432153000,2.841153076171875,10.28315544128418,0.8255237936973572,-0.19142581522464752
1772883278448754000,2.85775390625,9.888937950134277,0.9684949517250061,-0.049651071429252625
1772883278465362000,2.87436181640625,9.436694145202637,1.1629117727279663,0.12203395366668701
1772883278481969000,2.890968994140625,9.157332420349121,1.3070793151855469,0.28235307335853577
1772883278498562000,2.90756201171875,8.848658561706543,1.470389485359192,0.36670008301734924
1772883278515185700,2.924185546875,8.937790870666504,1.6372889280319214,0.5443671345710754
1772883278531781000,2.940781005859375,8.83370304107666,1.6259230375289917,0.6735795736312866
1772883278548371500,2.957371337890625,8.550153732299805,1.755135416984558,0.8578268885612488
1772883278564984800,2.97398486328125,8.994022369384766,2.09431791305542,0.9726824164390564
1772883278581596000,2.990595947265625,9.46899700164795,2.0787646770477295,1.0995019674301147
1772883278598205700,3.007205810546875,9.298508644104004,2.169093608856201,0.9475577473640442
1772883278614807600,3.0238076171875,9.019146919250488,2.286342144012451,0.9361918568611145
1772883278631410700,3.04041064453125,9.362516403198242,2.3982064723968506,1.1168500185012817
1772883278648001000,3.0570009765625,10.026525497436523,2.316850423812866,1.4279168844223022
1772883278664619000,3.073618896484375,10.584053039550781,2.2779672145843506,1.6636099815368652
1772883278681230800,3.09023095703125,11.205588340759277,2.237887382507324,1.5547364950180054
1772883278697814300,3.106814208984375,12.006586074829102,2.0057835578918457,1.1419745683670044
1772883278714423300,3.12342333984375,12.41396427154541,1.770688772201538,0.5539384484291077
1772883278731029800,3.14002978515625,12.128021240234375,1.8095721006393433,0.07776673883199692
1772883278747632600,3.156632568359375,11.862418174743652,2.1098713874816895,-0.1333998590707779
1772883278764248300,3.173248291015625,11.770294189453125,2.218146562576294,-0.0077766734175384045
1772883278780844000,3.189843994140625,12.122039794921875,2.1206390857696533,0.0849452018737793
1772883278797466600,3.206466552734375,12.426526069641113,1.726421594619751,0.137587308883667
1772883278814068000,3.22306787109375,12.395419120788574,1.1276177167892456,0.1908276081085205
1772883278830672600,3.239672607421875,12.023335456848145,0.5395814776420593,0.18364913761615753
1772883278847268900,3.256268798828125,11.578868865966797,0.1782652884721756,-0.06520441919565201
1772883278863884800,3.272884765625,10.969895362854004,-0.13639089465141296,-0.4701896607875824
1772883278880486100,3.289486083984375,10.015159606933594,-0.3924229145050049,-0.8638089895248413
1772883278897079800,3.306079833984375,8.971888542175293,-0.4450650215148926,-1.0163514614105225
1772883278913696000,3.322696044921875,8.120641708374023,-0.1824527233839035,-0.9427721500396729
1772883278930302700,3.339302734375,7.51286506652832,0.1537388563156128,-0.7022934556007385
1772883278946887700,3.3558876953125,7.332206726074219,0.24825534224510193,-0.20338992774486542
1772883278963508500,3.372508544921875,7.255038261413574,0.43489551544189453,0.23389841616153717
1772883278980098000,3.38909814453125,7.270591735839844,0.7106683254241943,0.5084748268127441
1772883278996710400,3.40571044921875,7.3304123878479,0.8919246196746826,0.6436693072319031
1772883279013314300,3.422314208984375,7.429116249084473,0.9696913957595825,0.6149554252624512
1772883279029919200,3.438919189453125,7.60080099105835,0.9768698215484619,0.5563312768936157
1772883279046511400,3.455511474609375,8.117053031921387,0.9415757060050964,0.3188436031341553
1772883279063129600,3.472129638671875,8.663214683532715,0.8291130661964417,0.15732808411121368
1772883279079734300,3.488734375,8.989236831665039,0.7573283910751343,0.025722842663526535
1772883279096341500,3.505341552734375,9.254241943359375,0.8380861282348633,-0.20458634197711945
1772883279112957400,3.52195751953125,9.355338096618652,0.9984052777290344,-0.36191442608833313
1772883279129563100,3.538563232421875,9.285347938537598,1.0947163105010986,-0.5330012440681458
1772883279146167000,3.5551669921875,9.17886734008789,1.1377872228622437,-0.6424728631973267
1772883279162773000,3.57177294921875,8.947361946105957,1.217348575592041,-0.7166503667831421
1772883279179374300,3.588374267578125,8.742177963256836,1.4069796800613403,-0.7668996453285217
1772883279195969500,3.604969482421875,8.830113410949707,1.5469598770141602,-0.7998009920120239
1772883279212574200,3.62157421875,8.871988296508789,1.6378871202468872,-0.7232306599617004
1772883279229179100,3.63817919921875,9.007781028747559,1.8394824266433716,-0.6454638838768005
1772883279245761800,3.65476171875,8.903693199157715,2.0297117233276367,-0.6484549641609192
1772883279262389500,3.671389404296875,8.70807933807373,2.276172637939453,-0.5832505226135254
1772883279278994700,3.68799462890625,8.763712882995605,2.4562325477600098,-0.33379876613616943
1772883279295616300,3.7046162109375,8.860024452209473,2.672184705734253,-0.26081767678260803
1772883279312201200,3.721201171875,9.099306106567383,2.679363250732422,-0.2763710021972656
1772883279328823300,3.7378232421875,9.414560317993164,2.674577474594116,-0.40737804770469666
1772883279345413400,3.754413330078125,9.769296646118164,2.6111676692962646,-0.4145565330982208
1772883279362033200,3.771033203125,9.984052658081055,2.623729944229126,-0.47796630859375
1772883279378637800,3.787637939453125,10.343574523925781,2.585444927215576,-0.5617151260375977
1772883279395243300,3.8042431640625,10.705488204956055,2.3844478130340576,-0.6562315821647644
1772883279411856600,3.820856689453125,10.989038467407227,2.287538528442383,-0.7830511927604675
1772883279428452900,3.837452880859375,11.379068374633789,2.33180570602417,-0.9667003750801086
1772883279445041200,3.854041259765625,11.792428016662598,2.221735715866089,-0.9840483069419861
1772883279461647000,3.870647216796875,12.129816055297852,2.1708884239196777,-0.7854440212249756
1772883279478268000,3.887267822265625,12.546167373657227,2.2169501781463623,-0.6101697683334351
1772883279494873000,3.903873046875,12.817752838134766,2.117648124694824,-0.4019941985607147
1772883279511500800,3.920500732421875,13.01396369934082,1.8843477964401245,-0.2709871530532837
1772883279528087600,3.937087646484375,13.064811706542969,1.46500563621521,-0.3846462368965149
1772883279544671700,3.953671630859375,12.931411743164062,0.8662018179893494,-0.5318048596382141
1772883279561293600,3.97029345703125,12.483953475952148,0.40378883481025696,-0.7381857633590698
1772883279577897700,3.986897705078125,11.909676551818848,0.10229317098855972,-0.8757730722427368
1772883279594503400,4.00350341796875,11.393424987792969,0.02153540402650833,-1.0600204467773438
1772883279611091700,4.020091796875,10.723434448242188,-0.04127619042992592,-1.262213945388794
1772883279627713000,4.036713134765625,9.790233612060547,-0.06520441919565201,-1.3483555316925049
1772883279644291000,4.053291015625,8.572287559509277,0.10229317098855972,-1.2299108505249023
1772883279660924000,4.069923828125,7.600203037261963,0.4827519655227661,-1.0396814346313477
1772883279677511700,4.08651171875,7.088139057159424,0.8051848411560059,-0.7860422134399414
1772883279694120000,4.103119873046875,6.912266254425049,1.0791629552841187,-0.5437689423561096
1772883279710724400,4.119724365234375,7.061817646026611,1.3369896411895752,-0.3086741268634796
1772883279727330000,4.136330078125,7.3878397941589355,1.3872389793395996,-0.15194423496723175
1772883279743922000,4.152921875,7.872386455535889,1.292722463607788,-0.2273181527853012
1772883279760540000,4.169539794921875,8.140382766723633,1.1778669357299805,-0.4737788736820221
1772883279777161500,4.186161376953125,8.298907279968262,1.090528964996338,-0.6903293132781982
1772883279793763300,4.202763427734375,8.777471542358398,1.0061819553375244,-0.9230313301086426
1772883279810369300,4.219369384765625,9.271589279174805,0.841675341129303,-1.195214867591858
1772883279826970400,4.235970458984375,9.735796928405762,0.7202396392822266,-1.5619150400161743
1772883279843572700,4.25257275390625,10.001399993896484,0.5240281820297241,-1.7467604875564575
1772883279860184300,4.269184326171875,10.092926025390625,0.4821537733078003,-1.7617156505584717
1772883279876788700,4.285788818359375,9.930213928222656,0.5832505226135254,-1.51166570186615
1772883279893377000,4.302376953125,9.68375301361084,0.8315058946609497,-1.1497513055801392
1772883279909963000,4.318962890625,9.481559753417969,0.9900303483009338,-0.898504912853241
1772883279926603800,4.335603759765625,9.198010444641113,1.0767701864242554,-0.7627122402191162
1772883279943195100,4.352195068359375,8.876175880432129,1.1682956218719482,-0.6879364848136902
1772883279959814100,4.368814208984375,8.548956871032715,1.2939188480377197,-0.6472585201263428
1772883279976418300,4.385418212890625,8.410771369934082,1.4979069232940674,-0.6687939167022705
1772883279993023700,4.402023681640625,8.428119659423828,1.6456637382507324,-0.5623133182525635
1772883280009617200,4.4186171875,8.270791053771973,1.8640087842941284,-0.5312066078186035
1772883280026233900,4.43523388671875,8.09970474243164,2.1003000736236572,-0.42352959513664246
1772883280042838000,4.451838134765625,8.154141426086426,2.3054845333099365,-0.2309073805809021
1772883280059444500,4.468444580078125,8.49571704864502,2.5322046279907227,-0.03529413416981697
1772883280076048600,4.485048583984375,9.039485931396484,2.6949164867401123,0.10169496387243271
1772883280092653600,4.501653564453125,9.445667266845703,2.7086751461029053,0.11844471842050552
1772883280109239000,4.518239013671875,9.626923561096191,2.715853691101074,0.07477571070194244
1772883280125864000,4.534864013671875,9.726823806762695,2.774477958679199,0.08374879509210587
1772883280142452000,4.551451904296875,9.908679008483887,2.7385854721069336,0.010767702013254166
1772883280159074300,4.56807421875,10.265807151794434,2.538186550140381,-0.15493527054786682
1772883280175661600,4.58466162109375,10.622936248779297,2.32761812210083,-0.2829512655735016
1772883280192270300,4.601270263671875,10.88973617553711,2.2845473289489746,-0.5335994362831116
1772883280208875300,4.617875244140625,11.254042625427246,2.2271196842193604,-0.6125625967979431
1772883280225480200,4.634480224609375,11.378469467163086,2.1816561222076416,-0.7663014531135559
1772883280242084900,4.6510849609375,11.45982551574707,2.375474691390991,-0.914058268070221
1772883280258690800,4.66769091796875,11.488539695739746,2.662015199661255,-0.8398807644844055
1772883280275312400,4.6843125,11.294720649719238,2.8456642627716064,-0.7040880918502808
1772883280291914000,4.7009140625,11.167901039123535,2.7846474647521973,-0.44027936458587646
1772883280308502000,4.717501953125,11.374282836914062,2.3635106086730957,-0.15314064919948578
1772883280325124000,4.7341240234375,11.901900291442871,1.6163517236709595,0.04905286431312561
1772883280341751300,4.750751220703125,12.054442405700684,0.8901300430297852,0.06640082597732544
1772883280358334000,4.767333984375,11.73141098022461,0.349352091550827,-0.34217363595962524
1772883280374938600,4.783938720703125,10.958529472351074,0.01196411345154047,-1.0528420209884644
1772883280391544600,4.800544677734375,9.973284721374512,-0.24287149310112,-1.6660027503967285
1772883280408136400,4.817136474609375,8.790034294128418,-0.21655045449733734,-1.7742780447006226
1772883280424738800,4.83373876953125,7.742575645446777,0.12382857501506805,-1.430907964706421
1772883280441366300,4.8503662109375,7.062416076660156,0.5676971673965454,-1.0169496536254883
1772883280457948000,4.866947998046875,6.802196502685547,1.0259226560592651,-0.6825526356697083
1772883280474569000,4.88356884765625,6.846463680267334,1.3399807214736938,-0.3601198196411133
1772883280491174400,4.90017431640625,6.970292568206787,1.5427724123001099,0.1621137410402298
1772883280507786000,4.916785888671875,7.1958160400390625,1.6660027503967285,0.6209374666213989
1772883280524364300,4.9333642578125,7.63729190826416,1.677966833114624,0.8817551732063293
1772883280540976600,4.9499765625,8.324629783630371,1.5182459354400635,0.8428717851638794
1772883280557594600,4.9665947265625,8.918049812316895,1.1724830865859985,0.5982056856155396
1772883280574198800,4.98319873046875,9.367302894592285,0.8350951075553894,0.31106695532798767
1772883280590804700,4.9998046875,9.662816047668457,0.5024927258491516,-0.15254244208335876
1772883280607393000,5.01639306640625,9.91286563873291,0.23688943684101105,-0.7250252366065979
1772883280624010200,5.03301025390625,10.17428207397461,0.16331014037132263,-1.2675977945327759
1772883280640619300,5.049619384765625,10.243673324584961,0.14775680005550385,-1.6169499158859253
1772883280657210600,5.066210693359375,9.981659889221191,0.251844584941864,-1.8634105920791626
1772883280673813000,5.08281298828125,9.534201622009277,0.36729827523231506,-1.9411773681640625
1772883280690421000,5.0994208984375,9.253643035888672,0.5688936114311218,-1.8185452222824097
1772883280707025700,5.116025634765625,9.471988677978516,0.7369893789291382,-1.6079767942428589
1772883280723645200,5.132645263671875,9.503693580627441,0.875174880027771,-1.4829518795013428
1772883280740236000,5.149236083984375,9.242876052856445,1.0295119285583496,-1.3465609550476074
1772883280756841000,5.165841064453125,8.963513374328613,1.2251251935958862,-1.113858938217163
1772883280773462800,5.182462890625,9.06700325012207,1.4111671447753906,-0.8739784955978394
1772883280790064600,5.199064697265625,9.1052885055542,1.4578272104263306,-0.6777670383453369
1772883280806655200,5.2156552734375,8.94137954711914,1.5744773149490356,-0.5515456199645996
1772883280823274800,5.232274658203125,8.871988296508789,1.7072789669036865,-0.49292147159576416
1772883280839876900,5.248876953125,9.05264663696289,1.7629120349884033,-0.5892325639724731
1772883280856489700,5.26548974609375,9.397810935974121,1.6719847917556763,-0.6969096064567566
1772883280873101800,5.282101806640625,9.929018020629883,1.607378602027893,-0.8967102766036987
1772883280889694500,5.298694580078125,10.316655158996582,1.550549030303955,-1.0235298871994019
1772883280906285300,5.315285400390625,10.463813781738281,1.6289139986038208,-1.0474581718444824
1772883280922901000,5.33190087890625,10.590633392333984,1.7772690057754517,-0.9182456731796265
1772883280939497500,5.34849755859375,10.911271095275879,1.8323038816452026,-0.7519445419311523
1772883280956115200,5.365115234375,11.282756805419922,1.9268203973770142,-0.7393822073936462
1772883280972719600,5.3817197265625,11.644671440124512,1.9980069398880005,-0.7980063557624817
1772883280989325300,5.3983251953125,12.138789176940918,1.8897316455841064,-0.9260223507881165
1772883281005930000,5.414929931640625,12.664013862609863,1.709073543548584,-0.9302098155021667
1772883281022541600,5.43154150390625,12.954741477966309,1.4919248819351196,-0.9577272534370422
1772883281039144000,5.44814404296875,12.984053611755371,1.191625714302063,-1.0510473251342773
1772883281055733000,5.46473291015625,12.888340950012207,0.890728235244751,-1.1958130598068237
1772883281072350000,5.481349853515625,12.588640213012695,0.5611169338226318,-1.1204391717910767
1772883281088955100,5.497955078125,11.989835739135742,0.3768695592880249,-1.0319048166275024
1772883281105559800,5.514559814453125,11.354541778564453,0.31764721870422363,-1.062413215637207
1772883281122161700,5.53116162109375,11.097911834716797,0.17228323221206665,-1.1623135805130005
1772883281138775600,5.547775634765625,11.040483474731445,-0.06759724020957947,-1.1784651279449463
1772883281155364600,5.564364501953125,10.685149192810059,-0.23988047242164612,-1.067797064781189
1772883281171966200,5.58096630859375,9.91705322265625,-0.2829512655735016,-0.8913264274597168
1772883281188572000,5.597572021484375,9.073583602905273,-0.16929219663143158,-0.7328019142150879
1772883281205176800,5.6141767578125,8.371888160705566,0.0005982056609354913,-0.7417750358581543
1772883281221781800,5.63078173828125,7.722835063934326,0.137587308883667,-0.7896314859390259
1772883281238386700,5.64738671875,7.265207767486572,0.32303106784820557,-0.6999006271362305
1772883281254995700,5.66399560546875,6.970890522003174,0.4630111753940582,-0.6586244106292725
1772883281271610400,5.6806103515625,7.007979393005371,0.5066801905632019,-0.6921239495277405
1772883281288215600,5.697215576171875,7.307082176208496,0.5928218364715576,-0.841675341129303
1772883281304824000,5.713823974609375,7.779664516448975,0.5712863802909851,-1.083350419998169
1772883281321425700,5.73042578125,8.186444282531738,0.5048855543136597,-1.2586246728897095
1772883281338026800,5.74702685546875,8.420342445373535,0.5461617708206177,-1.2735798358917236
1772883281354640000,5.763639892578125,8.685347557067871,0.6831508874893188,-1.322034478187561
1772883281371235000,5.780235107421875,9.150154113769531,0.6406782865524292,-1.363310694694519
1772883281387851000,5.79685107421875,9.495318412780762,0.5682953596115112,-1.4279168844223022
1772883281404451000,5.813451171875,9.81655502319336,0.5150550603866577,-1.5020943880081177
1772883281421056300,5.83005615234375,9.92542839050293,0.5694918036460876,-1.5451651811599731
1772883281437659400,5.846659423828125,9.696913719177246,0.7441678643226624,-1.547558069229126
1772883281454251300,5.863251220703125,9.273384094238281,0.9481559991836548,-1.3519448041915894
1772883281470870500,5.87987060546875,9.136993408203125,1.1413763761520386,-1.1539387702941895
1772883281487475700,5.896475830078125,9.111868858337402,1.2502498626708984,-1.033101201057434
1772883281504076300,5.913076171875,9.06999397277832,1.459621787071228,-0.9314061999320984
1772883281520673800,5.929673828125,8.861818313598633,1.6432709693908691,-0.8327022790908813
1772883281537287200,5.946287109375,8.475378036499023,1.8771693706512451,-0.714257538318634
1772883281553900000,5.962900146484375,8.536993026733398,2.2067806720733643,-0.5832505226135254
1772883281570500600,5.97950048828125,8.687142372131348,2.3850460052490234,-0.4821537733078003
1772883281587106000,5.99610595703125,8.57348346710205,2.579462766647339,-0.48514479398727417
1772883281603694300,6.0126943359375,8.531609535217285,2.788834810256958,-0.38763725757598877
1772883281620312300,6.029312255859375,8.980263710021973,2.9593234062194824,-0.13519448041915894
1772883281636904200,6.045904296875,9.492327690124512,2.973680257797241,-0.03768695518374443
1772883281653513200,6.06251318359375,9.880562782287598,2.8977081775665283,-0.16929219663143158
1772883281670117600,6.07911767578125,10.447063446044922,2.8073792457580566,-0.11605189740657806
1772883281686722600,6.09572265625,10.779067993164062,2.7433712482452393,-0.013160524889826775
1772883281703327200,6.1123271484375,10.960922241210938,2.703291416168213,-0.12921242415905
1772883281719933200,6.12893310546875,11.127821922302246,2.6727828979492188,-0.3074777126312256
1772883281736537600,6.14553759765625,11.496315956115723,2.65423846244812,-0.4289134442806244
1772883281753160000,6.162159912109375,11.83849048614502,2.767897605895996,-0.4061816334724426
1772883281769761000,6.178760986328125,11.703893661499023,2.8181469440460205,-0.33798620104789734
1772883281786366700,6.19536669921875,11.889935493469238,2.8354947566986084,-0.4253242313861847
1772883281802972000,6.211971923828125,12.275179862976074,2.6913273334503174,-0.48095735907554626
1772883281819570200,6.228570068359375,12.55693531036377,2.5022943019866943,-0.388235479593277
1772883281836186400,6.245186279296875,12.223734855651855,2.1397817134857178,-0.3888336718082428
1772883281852788700,6.261788818359375,11.58126163482666,1.7778671979904175,-0.23030917346477509
1772883281869391400,6.278391357421875,10.813763618469238,1.7001005411148071,0.06041877344250679
1772883281885996800,6.294996826171875,10.26640510559082,1.648654818534851,0.3355933725833893
1772883281902585300,6.31158544921875,10.337592124938965,1.6360924243927002,0.24885354936122894
1772883281919200300,6.3282001953125,10.327422142028809,1.368694543838501,0.12263216078281403
1772883281935814400,6.344814453125,9.973882675170898,1.0408778190612793,-0.049651071429252625
1772883281952435500,6.361435546875,9.343972206115723,0.9625129103660583,-0.037088751792907715
1772883281969021400,6.378021484375,8.293522834777832,1.399801254272461,0.11545369029045105
1772883281985627100,6.394627197265625,7.724629878997803,1.937588095664978,0.31405797600746155
1772883282002215400,6.41121533203125,7.627122402191162,2.3886351585388184,0.600000262260437
1772883282018837000,6.4278369140625,7.82273530960083,2.7433712482452393,0.7878368496894836
1772883282035443700,6.444443603515625,8.197212219238281,2.8725836277008057,0.6628118753433228
1772883282052045800,6.4610458984375,8.596813201904297,2.6775684356689453,0.4486542344093323
1772883282068668700,6.477668701171875,8.964112281799316,2.45204496383667,0.4013960063457489
1772883282085261300,6.49426123046875,9.19442081451416,2.431107759475708,0.3810569941997528
1772883282101844500,6.510844482421875,9.160323143005371,2.703291416168213,0.3595215976238251
1772883282118474000,6.527473876953125,8.911469459533691,2.888735055923462,0.18005990982055664
1772883282135055000,6.54405517578125,8.73320484161377,2.8701908588409424,-0.05802594870328903
1772883282151652000,6.560652099609375,8.809176445007324,2.8630123138427734,-0.23988047242164612
1772883282168254500,6.57725439453125,8.885746955871582,2.8115665912628174,-0.3415754437446594
1772883282184873500,6.59387353515625,8.808578491210938,2.825923442840576,-0.4223332107067108
1772883282201478100,6.61047802734375,8.35453987121582,3.0173492431640625,-0.4660021960735321
1772883282218084400,6.62708447265625,7.847261905670166,3.2470602989196777,-0.5569294691085815
1772883282234688500,6.6436884765625,7.677371501922607,3.477369546890259,-0.25304099917411804
1772883282251311000,6.66031103515625,8.025527000427246,3.4677982330322266,0.22791635990142822
1772883282267912200,6.676912109375,8.286943435668945,3.579662561416626,0.31824541091918945
1772883282284517400,6.693517333984375,8.470592498779297,3.735196113586426,0.3038884699344635
1772883282301109500,6.710109619140625,8.389236450195312,3.696911096572876,0.16091732680797577
1772883282317728300,6.726728271484375,7.936394691467285,3.775275945663452,-0.013160524889826775
1772883282334328600,6.74332861328125,7.429116249084473,4.037888050079346,-0.04666004329919815
1772883282350941400,6.75994140625,7.502097129821777,4.252644062042236,0.09810572862625122
1772883282367542300,6.776542236328125,8.134998321533203,4.286143779754639,0.33379876613616943
1772883282384147700,6.793147705078125,8.318648338317871,4.216153621673584,0.39900317788124084
1772883282400761300,6.80976123046875,8.086544036865234,4.347160339355469,0.4253242313861847
1772883282417358000,6.826358154296875,8.139784812927246,4.549354076385498,0.38344982266426086
1772883282433961500,6.84296142578125,8.486145973205566,4.452444553375244,0.39062830805778503
1772883282450568700,6.859568603515625,8.778668403625488,4.3752760887146,0.27337998151779175
1772883282467176700,6.8761767578125,8.748159408569336,4.489533424377441,0.29850462079048157
1772883282483777800,6.89277783203125,8.578866958618164,4.6061835289001465,0.39601215720176697
1772883282500356400,6.9093564453125,8.583653450012207,4.634897232055664,0.4295116662979126
1772883282516988400,6.925988525390625,8.968897819519043,4.552345275878906,0.5318048596382141
1772883282533588700,6.942588623046875,9.388239860534668,4.435695171356201,0.672383189201355
1772883282550201900,6.959201904296875,9.845269203186035,4.513461589813232,0.5790630578994751
1772883282566806800,6.975806884765625,10.13898754119873,4.425525665283203,0.6011967062950134
1772883282583408000,6.992408203125,10.620543479919434,4.497908592224121,0.5557330846786499
1772883282600008700,7.0090087890625,11.0835542678833,4.8191447257995605,0.5359922647476196
1772883282616601300,7.025601318359375,11.00877857208252,4.797011375427246,0.7615157961845398
1772883282633209300,7.042209228515625,10.384251594543457,4.638486862182617,0.6586244106292725
1772883282649814800,7.058814697265625,9.691530227661133,4.342973232269287,0.755533754825592
1772883282666419700,7.075419677734375,9.728020668029785,4.039084434509277,1.0402796268463135
1772883282683024600,7.092024658203125,10.460822105407715,3.524627685546875,1.1521440744400024
1772883282699619000,7.108619140625,11.070992469787598,2.881556749343872,1.0528420209884644
1772883282716235000,7.125235107421875,11.056036949157715,2.304288148880005,0.7663014531135559
1772883282732839000,7.1418388671875,10.551151275634766,2.080559253692627,0.5383850932121277
1772883282749463000,7.158463134765625,9.589835166931152,1.953141450881958,0.21714866161346436
1772883282766083300,7.175083251953125,8.530412673950195,2.170290231704712,-0.1908276081085205
1772883282782668500,7.19166845703125,7.792825222015381,2.393420934677124,-0.3720839321613312
1772883282799274500,7.2082744140625,7.717451095581055,2.602792739868164,-0.32183465361595154
1772883282815882200,7.22488232421875,8.164909362792969,2.6183462142944336,0.11066804826259613
1772883282832484900,7.24148486328125,8.528617858886719,2.706282377243042,0.3487538993358612
1772883282849088000,7.258087890625,8.612366676330566,2.8319056034088135,0.372682124376297
1772883282865677000,7.274677001953125,8.506484031677246,2.892324447631836,0.4217349886894226
1772883282882298600,7.291298583984375,8.144570350646973,3.0789644718170166,0.5497509837150574
1772883282898895600,7.3078955078125,7.859225749969482,3.308675527572632,0.763310432434082
1772883282915509500,7.324509521484375,8.178668022155762,3.4025938510894775,0.8147560954093933
1772883282932114200,7.3411142578125,8.846863746643066,3.2518460750579834,0.8099704384803772
1772883282948718300,7.35771826171875,9.34277629852295,3.084946632385254,0.7962117195129395
1772883282965307100,7.37430712890625,9.284749984741211,3.1172497272491455,0.8398807644844055
1772883282981929200,7.39092919921875,8.669795036315918,3.2404799461364746,0.7680960893630981
1772883282998541600,7.40754150390625,8.328219413757324,3.459423303604126,0.45583271980285645
1772883283015139300,7.424139404296875,8.221738815307617,3.4785659313201904,0.3320041298866272
1772883283031748600,7.44074853515625,8.106285095214844,3.5204403400421143,0.2997010350227356
1772883283048344600,7.457344482421875,8.087141990661621,3.5156545639038086,0.3284149169921875
1772883283064954000,7.4739541015625,8.033902168273926,3.5718860626220703,0.39601215720176697
1772883283081543200,7.490543212890625,8.14636516571045,3.706482172012329,0.4492524564266205
1772883283098152200,7.507152099609375,8.268997192382812,3.7710886001586914,0.33858439326286316
1772883283114752500,7.52375244140625,8.175676345825195,3.824328899383545,0.09571290761232376
1772883283131360800,7.54036083984375,7.94297456741333,3.9284164905548096,-0.016749758273363113
1772883283147965700,7.556965576171875,7.70967435836792,4.154538154602051,0.08195417374372482
1772883283164570400,7.5735703125,7.683353424072266,4.377070903778076,0.3080759048461914
1772883283181162800,7.590162841796875,8.103293418884277,4.4859442710876465,0.43609192967414856
1772883283197794600,7.606794677734375,8.68774127960205,4.482355117797852,0.5138586759567261
1772883283214385700,7.6233857421875,9.027522087097168,4.513461589813232,0.6747759580612183
1772883283230986200,7.639986328125,9.1716890335083,4.528416633605957,0.7794619798660278
1772883283247614000,7.656614013671875,9.393623352050781,4.439882278442383,0.7770691514015198
1772883283264202000,7.673201904296875,9.658628463745117,4.336990833282471,0.8135597109794617
1772883283280807000,7.689806884765625,9.775876998901367,4.23230504989624,0.8979067206382751
1772883283297423000,7.706423095703125,9.958329200744629,4.271786689758301,1.031306505203247
1772883283314030300,7.7230302734375,10.323833465576172,4.193421840667725,1.114457130432129
1772883283330630700,7.739630615234375,10.657033920288086,4.287938117980957,1.1467602252960205
1772883283347243800,7.756243896484375,10.692328453063965,4.225724697113037,1.1988041400909424
1772883283363825400,7.772825439453125,10.546365737915039,4.0666022300720215,1.1413763761520386
1772883283380479200,7.789479248046875,10.500304222106934,4.1629133224487305,0.9649057388305664
1772883283397038300,7.806038330078125,10.355538368225098,4.092324733734131,1.262213945388794
1772883283413660000,7.822659912109375,10.17009449005127,3.8913278579711914,1.6205391883850098
1772883283430260700,7.8392607421875,10.130613327026367,3.576073408126831,2.039283037185669
1772883283446874000,7.8558740234375,10.164710998535156,3.1956145763397217,2.4329023361206055
1772883283463475000,7.872474853515625,9.912267684936523,2.974876642227173,2.710469961166382
1772883283480056000,7.88905615234375,9.393623352050781,2.801995277404785,2.6877379417419434
1772883283496681200,7.90568115234375,8.944969177246094,2.6835505962371826,2.531606435775757
1772883283513290800,7.922290771484375,8.500502586364746,2.5567309856414795,2.222334146499634
1772883283529891000,7.93889111328125,8.408378601074219,2.5010979175567627,1.8783657550811768
1772883283546504200,7.955504150390625,8.392227172851562,2.5501506328582764,1.74496591091156
1772883283563090200,7.972090087890625,8.208578109741211,2.6392834186553955,1.7270197868347168
1772883283579695900,7.98869580078125,8.173283576965332,2.771486759185791,1.8765711784362793
1772883283596300500,8.005300537109376,8.338388442993164,2.681756019592285,1.9519450664520264
1772883283612906800,8.02190673828125,8.426324844360352,2.568096876144409,1.9357935190200806
1772883283629508900,8.0385087890625,8.25404167175293,2.575873613357544,1.9513468742370605
1772883283646120000,8.055119873046875,8.081160545349121,2.6075785160064697,1.8855443000793457
1772883283662721800,8.0717216796875,8.440681457519531,2.526820659637451,1.7491533756256104
1772883283679333400,8.08833349609375,8.906085968017578,2.4083759784698486,1.592423439025879
1772883283695931600,8.104931640625,9.167501449584961,2.4227328300476074,1.3854442834854126
1772883283712537300,8.121537353515626,9.073583602905273,2.5465614795684814,1.3154542446136475
1772883283729159700,8.13815966796875,8.628518104553223,2.8145575523376465,1.3244273662567139
1772883283745760300,8.15476025390625,8.2695951461792,3.050848960876465,1.2376874685287476
1772883283762349000,8.17134912109375,8.247461318969727,3.1477582454681396,1.0612168312072754
1772883283778971600,8.1879716796875,8.356932640075684,3.0933215618133545,0.8213363885879517
1772883283795581700,8.204581787109374,8.37428092956543,3.1136605739593506,0.6586244106292725
1772883283812175000,8.221175048828124,8.355138778686523,3.19860577583313,0.8410771489143372
1772883283828790000,8.2377900390625,8.535796165466309,3.308675527572632,1.0462616682052612
1772883283845387300,8.25438720703125,8.630910873413086,3.390629768371582,1.1324033737182617
1772883283861996000,8.27099609375,8.532207489013672,3.5192439556121826,1.057627558708191
1772883283878594600,8.287594482421875,8.346763610839844,3.6568312644958496,0.916451096534729
1772883283895212000,8.3042119140625,8.39282512664795,3.7112679481506348,0.7537391185760498
1772883283911815400,8.3208154296875,8.580063819885254,3.665804386138916,0.7238288521766663
1772883283928412700,8.33741259765625,8.817551612854004,3.731008768081665,0.641276478767395
1772883283945025500,8.354025634765625,8.921041488647461,3.7806596755981445,0.5694918036460876
1772883283961610000,8.37060986328125,9.05563735961914,3.7489547729492188,0.5682953596115112
1772883283978232000,8.387232177734376,9.259027481079102,3.6364922523498535,0.5521438121795654
1772883283994833400,8.40383349609375,9.385847091674805,3.5126636028289795,0.607776939868927
1772883284011444200,8.4204443359375,9.583852767944336,3.2350962162017822,0.8632107973098755
1772883284028042500,8.43704248046875,10.451848983764648,2.960519790649414,1.0618150234222412
1772883284044655600,8.453655517578126,11.663215637207031,2.9168508052825928,1.0163514614105225
1772883284061256700,8.470256591796876,12.29671573638916,2.8277182579040527,1.0169496536254883
1772883284077861400,8.486861328125,12.225528717041016,3.0658040046691895,1.1096714735031128
1772883284094449400,8.503449462890625,11.656635284423828,3.25663161277771,0.9804590940475464
1772883284111058400,8.520058349609375,11.303095817565918,2.9754750728607178,0.99481600522995
1772883284127658800,8.53665869140625,11.700902938842773,2.420340061187744,0.9218349456787109
1772883284144272400,8.5532724609375,12.352348327636719,1.867598056793213,0.9379864931106567
1772883284160877600,8.569877685546874,12.736994743347168,1.3148560523986816,1.1084750890731812
1772883284177478700,8.586478759765624,12.723236083984375,0.802193820476532,1.1766705513000488
1772883284194083300,8.603083251953125,12.105888366699219,0.5048855543136597,1.0534402132034302
1772883284210688300,8.619688232421876,11.051251411437988,0.5617151260375977,0.8685946464538574
1772883284227313400,8.6363134765625,9.934999465942383,0.8237292170524597,0.714257538318634
1772883284243909400,8.652909423828126,8.982656478881836,1.0253244638442993,0.5724828243255615
1772883284260536600,8.66953662109375,8.405387878417969,1.158724308013916,0.4289134442806244
1772883284277122800,8.686122802734374,8.355138778686523,1.2735798358917236,0.4013960063457489
1772883284293726700,8.702726806640625,8.5100736618042,1.4333007335662842,0.39182472229003906
1772883284310329600,8.71932958984375,8.437092781066895,1.5128620862960815,0.5030909776687622
1772883284326940400,8.7359404296875,8.38265609741211,1.6175481081008911,0.5084748268127441
1772883284343542800,8.752542724609375,8.568099975585938,1.6959130764007568,0.5180460810661316
1772883284360123100,8.769123046875,8.726624488830566,1.6265212297439575,0.4205385744571686
1772883284376753000,8.7857529296875,8.712865829467773,1.5978072881698608,0.4205385744571686
1772883284393357300,8.802357421875,8.873783111572266,1.6947166919708252,0.5018945336341858
1772883284409966000,8.818966064453125,9.247661590576172,1.6510475873947144,0.4325026869773865
1772883284426561300,8.835561279296876,9.465408325195312,1.6755740642547607,0.11545369029045105
1772883284443176000,8.852176025390625,9.07537841796875,1.7766708135604858,0.08015955984592438
1772883284459791600,8.86879150390625,8.50588607788086,2.108675003051758,0.23449662327766418
1772883284476382700,8.8853828125,8.273183822631836,2.3198416233062744,0.4378865361213684
1772883284492987000,8.90198681640625,8.360522270202637,2.366501569747925,0.7537391185760498
1772883284509593300,8.91859326171875,8.795417785644531,2.390429735183716,0.7226324677467346
1772883284526191900,8.93519189453125,9.147162437438965,2.218146562576294,0.6095715761184692
1772883284542808000,8.95180810546875,8.880363464355469,2.087737798690796,0.380458801984787
1772883284559389200,8.96838916015625,8.510671615600586,2.066800594329834,0.16689938306808472
1772883284575996400,8.984996337890625,8.282755851745605,2.2229323387145996,0.08793623000383377
1772883284592604400,9.0016044921875,8.198408126831055,2.3605196475982666,0.0849452018737793
1772883284609204000,9.018203857421875,8.10389232635498,2.6626133918762207,0.4462614357471466
1772883284625819100,9.034819091796875,8.250452041625977,3.061018466949463,0.5150550603866577
1772883284642420200,9.051420166015625,9.141180992126465,2.971287488937378,0.380458801984787
1772883284659024600,9.068024658203125,9.860821723937988,2.8079774379730225,0.2602194547653198
1772883284675629800,9.0846298828125,9.582656860351562,2.848057270050049,0.2476571500301361
1772883284692234200,9.101234130859375,9.204590797424316,3.303889751434326,0.784247636795044
1772883284708836900,9.1178369140625,9.110671997070312,3.6987056732177734,1.4811571836471558
1772883284725465000,9.134465087890625,10.065408706665039,3.5467612743377686,1.4315061569213867
