time,seconds_elapsed,z,y,x
1772883631070475500,0.1454755859375,8.346763610839844,3.28773832321167,-0.01615155301988125
1772883631087103000,0.16210302734375,8.671588897705078,3.263810157775879,-0.16689938306808472
1772883631103713300,0.17871337890625,8.661419868469238,3.2691938877105713,-0.23330020904541016
1772883631120326400,0.195326416015625,8.61057186126709,3.431307554244995,-0.26560330390930176
1772883631136925200,0.21192529296875,8.763114929199219,3.531208038330078,0.007178467698395252
1772883631153532200,0.2285322265625,8.979066848754883,3.5377883911132812,0.10648060590028763
1772883631170136000,0.245135986328125,9.100502967834473,3.438486099243164,0.12382857501506805
1772883631186739700,0.26173974609375,9.024530410766602,3.404388427734375,0.09990034252405167
1772883631203346400,0.278346435546875,8.869595527648926,3.2817561626434326,0.20039889216423035
1772883631219950800,0.294950927734375,8.883952140808105,3.2727832794189453,0.17168502509593964
1772883631236555500,0.311555419921875,8.992825508117676,3.3505499362945557,0.16689938306808472
1772883631253159400,0.328159423828125,9.087940216064453,3.3894333839416504,0.25782662630081177
1772883631269765000,0.34476513671875,9.072985649108887,3.455834150314331,0.31046873331069946
1772883631286374400,0.36137451171875,9.150752067565918,3.4265220165252686,0.4295116662979126
1772883631302978300,0.377978271484375,9.137591361999512,3.3690943717956543,0.47258245944976807
1772883631319581000,0.394580810546875,9.190832138061523,3.3505499362945557,0.4576273262500763
1772883631336186000,0.41118603515625,9.368498802185059,3.3517463207244873,0.5473581552505493
1772883631352793300,0.42779345703125,9.391828536987305,3.403790235519409,0.6101697683334351
1772883631369400000,0.444400146484375,9.295517921447754,3.4265220165252686,0.6442674994468689
1772883631386004000,0.46100390625,9.243474006652832,3.421138286590576,0.6394818425178528
1772883631402611500,0.477611572265625,9.58205795288086,3.45882511138916,0.6137589812278748
1772883631419211800,0.494211669921875,9.842277526855469,3.3708889484405518,0.6071787476539612
1772883631435817000,0.51081689453125,9.965508460998535,3.4157543182373047,0.5491527915000916
1772883631452423200,0.527423095703125,10.153345108032227,3.34576416015625,0.5383850932121277
1772883631469025300,0.544025390625,10.107282638549805,3.239881753921509,0.5282155871391296
1772883631485637600,0.5606376953125,10.150951385498047,3.3583266735076904,0.20338992774486542
1772883631502239000,0.577239013671875,10.251450538635254,3.3308091163635254,0.15493527054786682
1772883631518842400,0.59384228515625,10.582856178283691,3.2159535884857178,0.04247260093688965
1772883631535451000,0.610450927734375,10.685149192810059,3.5168511867523193,-0.3481557071208954
1772883631552036900,0.627036865234375,10.405787467956543,3.8111681938171387,-0.4307080805301666
1772883631568658200,0.643658203125,9.871589660644531,4.033700942993164,-0.25363919138908386
1772883631585252400,0.66025244140625,9.502496719360352,4.020540237426758,0.2883351147174835
1772883631601855500,0.67685546875,9.881160736083984,3.8727834224700928,0.7016952633857727
1772883631618462700,0.693462646484375,10.928619384765625,3.212364435195923,0.8961120843887329
1772883631635064300,0.710064208984375,11.672188758850098,2.35872483253479,0.9577272534370422
1772883631651687700,0.726687744140625,11.857632637023926,1.8921245336532593,0.8811569213867188
1772883631668291800,0.743291748046875,11.540583610534668,1.5954145193099976,0.5222335457801819
1772883631684891000,0.759890869140625,11.24746322631836,1.466800332069397,0.001794616924598813
1772883631701496600,0.77649658203125,11.204392433166504,1.3310075998306274,-0.36251261830329895
1772883631718106600,0.793106689453125,10.925628662109375,1.3298112154006958,-0.5904290080070496
1772883631734694000,0.80969384765625,10.362716674804688,1.4769697189331055,-0.605384111404419
1772883631751323100,0.8263232421875,9.948160171508789,1.6917256116867065,-0.486939400434494
1772883631767913500,0.84291357421875,9.584450721740723,1.72941255569458,-0.37447673082351685
1772883631784532200,0.8595322265625,9.573084831237793,1.815554141998291,-0.3595215976238251
1772883631801126100,0.876126220703125,9.428318977355957,1.9609181880950928,-0.19980068504810333
1772883631817732600,0.892732666015625,9.07717227935791,2.122433662414551,0.06161518394947052
1772883631834324200,0.90932421875,8.825926780700684,2.286342144012451,0.16929219663143158
1772883631850943700,0.92594384765625,8.671588897705078,2.3473589420318604,0.16151553392410278
1772883631867548000,0.9425478515625,8.493324279785156,2.4125633239746094,0.12442677468061447
1772883631884156700,0.95915673828125,8.315656661987305,2.4394826889038086,0.13519448041915894
1772883631900759000,0.975759033203125,8.065607070922852,2.5322046279907227,0.16151553392410278
1772883631917366800,0.99236669921875,7.827520847320557,2.720639228820801,0.19262222945690155
1772883631933971200,1.00897119140625,7.738388538360596,2.895913600921631,0.2805584669113159
1772883631950574000,1.025573974609375,7.616354465484619,3.0239295959472656,0.2679961323738098
1772883631967175400,1.042175537109375,7.598408222198486,3.2057840824127197,0.22133609652519226
1772883631983789000,1.0587890625,7.666005611419678,3.252444267272949,0.4462614357471466
1772883632000392400,1.075392333984375,7.665407180786133,3.3415768146514893,0.6622136831283569
1772883632016993500,1.09199365234375,7.690532207489014,3.3643085956573486,0.8344969153404236
1772883632033605400,1.10860546875,7.765905857086182,3.4271202087402344,0.8967102766036987
1772883632050190000,1.125190185546875,7.952546119689941,3.5090744495391846,1.0971091985702515
1772883632066794000,1.1417939453125,8.085946083068848,3.5994033813476562,1.3028919696807861
1772883632083404800,1.15840478515625,8.164909362792969,3.757927894592285,1.3465609550476074
1772883632100008700,1.1750087890625,8.181658744812012,3.8871402740478516,1.3854442834854126
1772883632116617700,1.19161767578125,8.23549747467041,4.051048755645752,1.2813565731048584
1772883632133218300,1.20821826171875,8.429914474487305,4.097110748291016,1.1850453615188599
1772883632149838300,1.22483837890625,8.590831756591797,4.18983268737793,1.1653046607971191
1772883632166440700,1.241440673828125,8.563912391662598,4.403990268707275,1.3154542446136475
1772883632183046400,1.25804638671875,8.718847274780273,4.624728202819824,1.459621787071228
1772883632199636200,1.27463623046875,8.965906143188477,4.745565414428711,1.6169499158859253
1772883632216254700,1.291254638671875,9.035298347473145,4.837689399719238,1.521835207939148
1772883632232863200,1.30786328125,9.250054359436035,4.864608287811279,1.439282774925232
1772883632249466400,1.32446630859375,9.597013473510742,4.692325115203857,1.3357932567596436
1772883632266060800,1.341060791015625,10.040882110595703,4.411766529083252,1.1204391717910767
1772883632282699300,1.35769921875,10.173684120178223,4.36391019821167,0.7369893789291382
1772883632299281700,1.37428173828125,9.879366874694824,4.433900356292725,0.5575276613235474
1772883632315885000,1.390885009765625,9.798608779907227,4.540380954742432,0.2667997181415558
1772883632332490200,1.407490234375,9.654440879821777,4.680959224700928,-0.1381855010986328
1772883632349099500,1.424099609375,9.275776863098145,4.692325115203857,-0.23629122972488403
1772883632365704700,1.44070458984375,8.930013656616211,4.511068820953369,-0.19740787148475647
1772883632382317800,1.45731787109375,8.930612564086914,4.091726779937744,0.1585244983434677
1772883632398911700,1.473911865234375,9.391230583190918,3.493520975112915,0.7920243144035339
1772883632415521800,1.490521728515625,10.131211280822754,2.9150562286376953,1.0947163105010986
1772883632432118800,1.507118896484375,10.60977554321289,2.39401912689209,1.0689935684204102
1772883632448726500,1.5237265625,10.687541961669922,2.046461582183838,0.989432156085968
1772883632465331700,1.540331787109375,10.272387504577637,1.9423737525939941,0.8428717851638794
1772883632481940200,1.556940185546875,9.564111709594727,1.841277003288269,0.544965386390686
1772883632498542600,1.57354248046875,8.844470977783203,1.8502501249313354,0.2907279431819916
1772883632515147500,1.5901474609375,8.357531547546387,1.9854445457458496,0.08374879509210587
1772883632531737300,1.6067373046875,8.103293418884277,2.1714866161346436,-0.18125630915164948
1772883632548351500,1.6233515625,8.219346046447754,2.359323024749756,-0.18544375896453857
1772883632564950000,1.639949951171875,8.385048866271973,2.5322046279907227,-0.022133609279990196
1772883632581555500,1.656555419921875,8.295317649841309,2.5812573432922363,0.2991028428077698
1772883632598160000,1.673159912109375,8.382058143615723,2.7074787616729736,0.7968099117279053
1772883632614765000,1.68976513671875,8.833105087280273,2.813361167907715,1.2735798358917236
1772883632631371300,1.706371337890625,9.519247055053711,2.851048231124878,1.7288143634796143
1772883632647990000,1.722989990234375,10.149755477905273,2.750549554824829,1.9543378353118896
1772883632664596000,1.739595947265625,10.24487018585205,2.5124638080596924,1.9519450664520264
1772883632681200400,1.756200439453125,9.709476470947266,2.3700907230377197,1.633699655532837
1772883632697803000,1.772802978515625,9.019146919250488,2.32761812210083,1.2831511497497559
1772883632714408700,1.78940869140625,8.504091262817383,2.410170555114746,1.028315544128418
1772883632731007500,1.806007568359375,8.14098072052002,2.5609183311462402,0.8452646136283875
1772883632747623400,1.82262353515625,7.970492362976074,2.717050075531006,0.7848458290100098
1772883632764225000,1.83922509765625,8.033304214477539,2.6979074478149414,0.8847461938858032
1772883632780831500,1.85583154296875,8.166703224182129,2.746960401535034,0.9517452120780945
1772883632797433000,1.87243310546875,8.22712230682373,2.8522446155548096,0.9852447509765625
1772883632814039300,1.889039306640625,8.301300048828125,3.080759048461914,1.2448660135269165
1772883632830641700,1.9056416015625,8.489734649658203,3.3343982696533203,1.4991034269332886
1772883632847244800,1.922244873046875,8.560921669006348,3.4199416637420654,1.6671991348266602
1772883632863843300,1.93884326171875,8.5764741897583,3.4468610286712646,1.906481385231018
1772883632880433400,1.955433349609375,8.663812637329102,3.3996028900146484,1.9914265871047974
1772883632897053700,1.9720537109375,8.706883430480957,3.3343982696533203,1.8137595653533936
1772883632913659000,1.988658935546875,8.799007415771484,3.442673683166504,1.5750755071640015
1772883632930262800,2.0052626953125,9.026923179626465,3.521636724472046,1.521835207939148
1772883632946862000,2.021862060546875,9.122037887573242,3.607778310775757,1.6845471858978271
1772883632963470300,2.03847021484375,9.052047729492188,3.8159539699554443,1.8490537405014038
1772883632980097500,2.05509765625,9.015557289123535,4.030111312866211,1.9938194751739502
1772883632996693800,2.07169384765625,9.147761344909668,4.1036906242370605,1.9028922319412231
1772883633013301000,2.088301025390625,9.699904441833496,3.957728624343872,1.7742780447006226
1772883633029905400,2.104905517578125,10.350153923034668,3.7674992084503174,1.8652052879333496
1772883633046496300,2.121496337890625,10.940583229064941,3.6777684688568115,1.9519450664520264
1772883633063115500,2.138115478515625,11.37069320678711,3.692723512649536,1.8490537405014038
1772883633079719700,2.1547197265625,11.818151473999023,3.5401811599731445,1.7832510471343994
1772883633096324000,2.171323974609375,12.236894607543945,3.5048868656158447,1.374078392982483
1772883633112916200,2.187916259765625,12.180065155029297,3.6783666610717773,1.2131611108779907
1772883633129536000,2.204535888671875,11.809178352355957,3.624528169631958,1.4446666240692139
1772883633146121700,2.221121826171875,11.49512004852295,3.1166515350341797,1.6767704486846924
1772883633162748700,2.237748779296875,11.376076698303223,2.447857618331909,1.9932212829589844
1772883633179352000,2.25435205078125,11.122437477111816,1.688734531402588,2.0129621028900146
1772883633195954400,2.270954345703125,10.925628662109375,1.0253244638442993,1.5020943880081177
1772883633212562000,2.28756201171875,10.448260307312012,0.7112665176391602,0.7082754969596863
1772883633229190100,2.304190185546875,9.627521514892578,0.5742774605751038,-0.029312077909708023
1772883633245770200,2.320770263671875,8.788239479064941,0.5491527915000916,-0.43609192967414856
1772883633262382600,2.337382568359375,8.063812255859375,0.6089733839035034,-0.5557330846786499
1772883633278976000,2.35397607421875,7.35613489151001,1.0755738019943237,-0.6059823632240295
1772883633295585000,2.3705849609375,6.966702938079834,1.4997016191482544,-0.3278166949748993
1772883633312192500,2.387192626953125,7.1988067626953125,1.908276081085205,-0.23988047242164612
1772883633328796000,2.4037958984375,7.979465484619141,1.9070796966552734,-0.17288143932819366
1772883633345385700,2.4203857421875,8.793622970581055,1.6845471858978271,0.0364905446767807
1772883633361995500,2.43699560546875,9.124430656433105,1.5601203441619873,0.4731806814670563
1772883633378603500,2.453603515625,9.2255277633667,1.6253247261047363,0.7651050686836243
1772883633395205600,2.47020556640625,9.498908042907715,1.6420745849609375,0.9020941257476807
1772883633411807200,2.48680712890625,10.136594772338867,1.5248262882232666,0.8213363885879517
1772883633428422000,2.503421875,10.493125915527344,1.339382529258728,0.6125625967979431
1772883633445019100,2.52001904296875,10.381858825683594,1.2783654928207397,0.30628129839897156
1772883633461625000,2.536625,9.93380355834961,1.4225330352783203,0.17587246000766754
1772883633478241800,2.55324169921875,9.29611587524414,1.7407784461975098,0.19621145725250244
1772883633494847700,2.56984765625,8.874979019165039,2.045863389968872,0.38763725757598877
1772883633511467000,2.586467041015625,8.734400749206543,2.1780667304992676,0.45643091201782227
1772883633528056300,2.603056396484375,8.743971824645996,2.2061824798583984,0.50907301902771
1772883633544646100,2.619646240234375,8.74756145477295,2.2402801513671875,0.48514479398727417
1772883633561268000,2.63626806640625,8.797212600708008,2.196611166000366,0.5659025311470032
1772883633577871400,2.652871337890625,8.96530818939209,2.3575284481048584,0.4707878530025482
1772883633594480400,2.66948046875,8.997611045837402,2.396411895751953,0.389431893825531
1772883633611081000,2.6860810546875,9.002995491027832,2.5842485427856445,0.2949153780937195
1772883633627689500,2.702689453125,8.933005332946777,2.7182464599609375,0.2153540402650833
1772883633644294100,2.719294189453125,8.763114929199219,2.901895761489868,0.34695929288864136
1772883633660898000,2.73589794921875,8.660821914672852,3.04307222366333,0.46779683232307434
1772883633677499100,2.7524990234375,8.773882865905762,3.1447670459747314,0.49651068449020386
1772883633694111500,2.769111572265625,8.998209953308105,3.1615169048309326,0.4570291340351105
1772883633710712600,2.785712646484375,9.260822296142578,3.1794631481170654,0.40319061279296875
1772883633727323400,2.802323486328125,9.518648147583008,3.201596736907959,0.3924229145050049
1772883633743923200,2.818923095703125,9.809974670410156,3.218944549560547,0.4049852192401886
1772883633760530700,2.83553076171875,10.16889762878418,3.222533941268921,0.4366901218891144
1772883633777130800,2.852130859375,10.472187995910645,3.191427230834961,0.5593222975730896
1772883633793739300,2.8687392578125,10.462616920471191,3.218944549560547,0.6837490797042847
1772883633810343400,2.885343505859375,10.202397346496582,3.311666488647461,0.6574280261993408
1772883633826946300,2.9019462890625,9.90688419342041,3.448655605316162,0.4731806814670563
1772883633843539000,2.9185390625,9.829116821289062,3.4307093620300293,0.2584248483181
1772883633860148700,2.935148681640625,9.886545181274414,3.3990044593811035,0.1381855010986328
1772883633876748300,2.951748291015625,9.999007225036621,3.5198421478271484,0.13878370821475983
1772883633893361200,2.968361083984375,10.040882110595703,3.356531858444214,0.23270200192928314
1772883633909961700,2.984961669921875,10.219745635986328,3.0556344985961914,0.3924229145050049
1772883633926565600,3.001565673828125,10.465009689331055,2.5639095306396484,0.5736792087554932
1772883633943171300,3.01817138671875,10.801201820373535,2.0069799423217773,0.6729813814163208
1772883633959794200,3.034794189453125,11.082358360290527,1.5702898502349854,0.6346961855888367
1772883633976392700,3.051392822265625,10.77966594696045,1.3334003686904907,0.5246263742446899
1772883633993000400,3.06800048828125,10.000204086303711,1.2729816436767578,0.4426721930503845
1772883634009607700,3.084607666015625,9.027522087097168,1.3716856241226196,0.5060819983482361
1772883634026209300,3.101209228515625,8.61176872253418,1.475175142288208,0.18843477964401245
1772883634042814700,3.117814697265625,8.926424980163574,1.4757733345031738,-0.047258246690034866
1772883634059420000,3.134419921875,9.296713829040527,1.472184181213379,0.2997010350227356
1772883634076023300,3.151023193359375,9.552745819091797,1.7491533756256104,0.6879364848136902
1772883634092639500,3.167639404296875,9.614959716796875,1.9465612173080444,1.2436695098876953
1772883634109234400,3.184234375,9.405587196350098,2.2337000370025635,1.5481562614440918
1772883634125827000,3.2008271484375,9.133403778076172,2.572882652282715,1.8532410860061646
1772883634142447600,3.217447509765625,9.041878700256348,2.8911280632019043,1.999801516532898
1772883634159051300,3.23405126953125,9.448657989501953,3.0837502479553223,1.8029918670654297
1772883634175657000,3.250656982421875,10.258030891418457,3.0029923915863037,1.654038667678833
1772883634192261600,3.26726171875,10.808380126953125,2.7595226764678955,1.6923238039016724
1772883634208866800,3.28386669921875,10.879566192626953,2.5591237545013428,1.7766708135604858
1772883634225472000,3.300471923828125,10.589436531066895,2.3850460052490234,1.5810575485229492
1772883634242060000,3.31706005859375,10.071989059448242,2.2636101245880127,1.114457130432129
1772883634258645500,3.3336455078125,9.504291534423828,2.2241287231445312,0.519242525100708
1772883634275276500,3.350276611328125,8.888737678527832,2.2402801513671875,0.09212367236614227
1772883634291878700,3.366878662109375,8.239086151123047,2.4011974334716797,-0.026919255033135414
1772883634308483600,3.383483642578125,7.670193195343018,2.6530420780181885,0.049651071429252625
1772883634325089300,3.40008935546875,7.274180889129639,2.8492536544799805,0.09152546525001526
1772883634341693400,3.416693359375,7.118049144744873,3.0101709365844727,0.0891326442360878
1772883634358299000,3.433298828125,7.004988193511963,3.153141975402832,0.047258246690034866
1772883634374903800,3.44990380859375,6.954739093780518,3.2626137733459473,0.03409772366285324
1772883634391509500,3.466509521484375,7.028916358947754,3.4067811965942383,0.08733802288770676
1772883634408114000,3.483114013671875,7.511070251464844,3.5306098461151123,0.20997019112110138
1772883634424719000,3.499718994140625,7.9040913581848145,3.5712878704071045,0.4091726839542389
1772883634441323800,3.51632373046875,8.084749221801758,3.6442689895629883,0.48035913705825806
1772883634457942800,3.53294287109375,8.35453987121582,3.758526086807251,0.364905446767807
1772883634474552300,3.54955224609375,8.706883430480957,3.806382656097412,0.243469700217247
1772883634491154000,3.56615380859375,8.85763168334961,3.8668015003204346,0.07597211748361588
1772883634507758300,3.58275830078125,8.784649848937988,3.896113395690918,-0.10049854964017868
1772883634524363300,3.59936328125,8.922237396240234,3.94097900390625,-0.11066804826259613
1772883634540967700,3.6159677734375,9.53779125213623,3.8500516414642334,0.1052841991186142
1772883634557574000,3.632573974609375,10.475179672241211,3.67238450050354,0.2231307178735733
1772883634574178800,3.6491787109375,11.328819274902344,3.741178274154663,-0.02512463741004467
1772883634590784000,3.665783935546875,11.403594970703125,3.7908291816711426,-0.1782652884721756
1772883634607388400,3.682388427734375,11.013564109802246,3.87876558303833,-0.2757728099822998
1772883634623994400,3.698994384765625,10.604990005493164,4.204787731170654,-0.3284149169921875
1772883634640621300,3.715621337890625,10.275378227233887,4.233501434326172,-0.15912270545959473
1772883634657204200,3.732204345703125,10.316655158996582,3.906881093978882,0.05383851006627083
1772883634673809000,3.748808837890625,10.835299491882324,3.5676984786987305,0.08135596662759781
1772883634690414000,3.7654140625,11.237293243408203,3.111267566680908,0.25304099917411804
1772883634707018800,3.782018798828125,11.033305168151855,2.726621389389038,0.15074782073497772
1772883634723625000,3.798625,10.41356372833252,2.5256242752075195,-0.04785645380616188
1772883634740214000,3.815214111328125,9.69212818145752,2.3994028568267822,-0.2267199456691742
1772883634756834600,3.83183447265625,9.178269386291504,2.424527645111084,-0.4815555512905121
1772883634773439500,3.848439453125,8.903095245361328,2.4526431560516357,-0.7334001660346985
1772883634790045000,3.865044921875,8.629117012023926,2.489133834838867,-0.875174880027771
1772883634806649000,3.881649169921875,8.412566184997559,2.5112674236297607,-0.9744769930839539
1772883634823238000,3.89823779296875,8.301300048828125,2.5537400245666504,-1.0067801475524902
1772883634839845600,3.914845703125,8.437690734863281,2.6985056400299072,-0.9589236974716187
1772883634856451600,3.93145166015625,8.455039024353027,2.7942185401916504,-0.9439685344696045
1772883634873056300,3.94805615234375,8.502297401428223,2.870789051055908,-0.8811569213867188
1772883634889661400,3.964661376953125,8.430512428283691,2.8839495182037354,-0.8231309652328491
1772883634906266400,3.981266357421875,8.333602905273438,2.9772696495056152,-0.6783652305603027
1772883634922872000,3.9978720703125,8.569893836975098,2.9593234062194824,-0.48873403668403625
1772883634939476200,4.014476318359375,8.83250617980957,2.779263496398926,-0.381655216217041
1772883634956099300,4.031099365234375,9.006584167480469,2.7182464599609375,-0.2919243574142456
1772883634972700700,4.04770068359375,9.131608963012695,2.736790895462036,-0.09690931439399719
1772883634989306400,4.064306396484375,8.996415138244629,2.854039192199707,0.024526432156562805
1772883635005910000,4.080909912109375,8.59202766418457,2.964707374572754,0.02751746028661728
1772883635022516500,4.0975166015625,8.481359481811523,3.0113673210144043,0.009571290574967861
1772883635039092500,4.114092529296875,8.706883430480957,3.064607620239258,0.28594231605529785
1772883635055725800,4.130725830078125,8.989834785461426,3.1130621433258057,0.5479564070701599
1772883635072331300,4.147331298828125,9.072985649108887,3.1208388805389404,0.8536394834518433
1772883635088936000,4.16393603515625,9.060422897338867,3.1094729900360107,1.059422254562378
1772883635105540900,4.180540771484375,8.843274116516113,3.207578659057617,1.0516455173492432
1772883635122147000,4.19714697265625,8.585447311401367,3.3553354740142822,0.8291130661964417
1772883635138751000,4.2137509765625,8.333602905273438,3.4498519897460938,0.6544370055198669
1772883635155356200,4.230356201171875,8.24387264251709,3.630510091781616,0.646660327911377
1772883635171961600,4.246961669921875,8.414958953857422,3.7740795612335205,0.8859425783157349
1772883635188566300,4.263566162109375,8.585447311401367,3.9559340476989746,1.1156535148620605
1772883635205171200,4.280171142578125,8.645866394042969,4.06121826171875,1.1736794710159302
1772883635221774000,4.296774169921875,8.714061737060547,3.995415687561035,1.1060823202133179
1772883635238384000,4.313384033203125,8.843274116516113,4.015754699707031,1.1820544004440308
1772883635254986800,4.32998681640625,9.199206352233887,3.951148271560669,1.308275818824768
1772883635271592200,4.34659228515625,9.911669731140137,3.7663028240203857,1.4416756629943848
1772883635288200000,4.363199951171875,10.551749229431152,3.623929977416992,1.5900306701660156
1772883635304784600,4.37978466796875,10.780263900756836,3.6981074810028076,1.5655041933059692
1772883635321393700,4.3963935546875,10.3890380859375,3.8428730964660645,1.5068800449371338
1772883635337998000,4.412998046875,9.849455833435059,3.9589250087738037,1.2185449600219727
1772883635354604000,4.42960400390625,9.435498237609863,4.216153621673584,0.8691928386688232
1772883635371208200,4.446208251953125,9.216554641723633,4.357928276062012,0.7471588850021362
1772883635387801000,4.462801025390625,9.258428573608398,4.186243057250977,0.7884350419044495
1772883635404418600,4.47941845703125,9.474979400634766,3.895515203475952,0.8763712644577026
1772883635421024000,4.49602392578125,9.795618057250977,3.40079927444458,0.9469595551490784
1772883635437636000,4.512635986328125,10.237691879272461,2.8217360973358154,0.973878800868988
1772883635454244000,4.529244140625,10.552946090698242,2.32761812210083,0.9110672473907471
1772883635470852000,4.54585205078125,10.317851066589355,2.048854351043701,0.7429714202880859
1772883635487458800,4.562458740234375,9.623334884643555,2.042872428894043,0.6131607890129089
1772883635504047000,4.579047119140625,8.749356269836426,2.191227436065674,0.5904290080070496
1772883635520668200,4.595668212890625,8.248658180236816,2.3539392948150635,0.5557330846786499
1772883635537256000,4.612255859375,8.4562349319458,2.5322046279907227,0.6616154313087463
1772883635553878000,4.6288779296875,9.156135559082031,2.5848467350006104,0.9780662655830383
1772883635570483000,4.64548291015625,9.445667266845703,2.561516523361206,1.306481122970581
1772883635587088600,4.662088623046875,9.336793899536133,2.572882652282715,1.551147222518921
1772883635603692800,4.67869287109375,9.059226989746094,2.6452653408050537,1.6917256116867065
1772883635620294400,4.69529443359375,9.09691333770752,2.650649309158325,1.6773686408996582
1772883635636886500,4.711886474609375,9.269196510314941,2.6524438858032227,1.6235301494598389
1772883635653509000,4.728509033203125,9.520442962646484,2.779263496398926,1.7096717357635498
1772883635670114000,4.745114013671875,9.600603103637695,2.8654050827026367,1.7718851566314697
1772883635686719000,4.761718994140625,9.202198028564453,2.9240293502807617,1.7168502807617188
1772883635703323400,4.778323486328125,8.59920597076416,3.092125177383423,1.4536397457122803
1772883635719929900,4.794929931640625,8.091927528381348,3.2231321334838867,1.1371889114379883
1772883635736516900,4.811516845703125,7.886743545532227,3.3194432258605957,0.771087110042572
1772883635753139500,4.828139404296875,7.82692289352417,3.3409786224365234,0.40319061279296875
1772883635769744100,4.844744140625,8.0081787109375,3.2823543548583984,0.15732808411121368
1772883635786349300,4.861349365234375,8.271987915039062,3.232703447341919,0.15074782073497772
1772883635802923500,4.877923583984375,8.490931510925293,3.334996461868286,0.24586252868175507
1772883635819546000,4.894546142578125,8.527421951293945,3.473181962966919,0.36670008301734924
1772883635836137000,4.911136962890625,8.496912956237793,3.620340585708618,0.4731806814670563
1772883635852756500,4.927756591796875,8.46580696105957,3.744169235229492,0.47916272282600403
1772883635869360400,4.9443603515625,8.440083503723145,3.830310821533203,0.48454657196998596
1772883635885966000,4.960966064453125,8.444869041442871,3.820739507675171,0.4654040038585663
1772883635902571000,4.977571044921875,8.559126853942871,3.82791805267334,0.3403790295124054
1772883635919176200,4.99417626953125,8.58185863494873,3.833899974822998,0.2350948303937912
1772883635935819000,5.010819091796875,8.590831756591797,3.8673996925354004,0.21595224738121033
1772883635952400400,5.027400390625,8.800801277160645,3.865604877471924,0.14775680005550385
1772883635969005000,5.044005126953125,9.078369140625,3.8362929821014404,0.02632104977965355
1772883635985610000,5.06060986328125,9.227322578430176,3.7573297023773193,-0.12323036789894104
1772883636002215200,5.077215087890625,9.376873970031738,3.6777684688568115,-0.1339980661869049
1772883636018820000,5.093820068359375,9.690333366394043,3.589832067489624,-0.04546362906694412
1772883636035428400,5.110428466796875,10.204192161560059,3.531806230545044,0.07058826833963394
1772883636052031000,5.127031005859375,10.557731628417969,3.761517286300659,-0.04426721855998039
1772883636068611800,5.14361181640625,10.65105152130127,3.8638103008270264,-0.09212367236614227
1772883636085225200,5.16022509765625,10.515857696533203,3.9529430866241455,-0.04785645380616188
1772883636101830000,5.176829833984375,10.217950820922852,4.274777889251709,-0.03888336941599846
1772883636118452700,5.19345263671875,9.837491989135742,4.235296249389648,0.22133609652519226
1772883636135056000,5.210055908203125,10.087542533874512,3.992424488067627,0.4139583110809326
1772883636151660800,5.226660888671875,10.722238540649414,3.582653760910034,0.41216370463371277
1772883636168248800,5.243248779296875,10.954939842224121,2.906083106994629,0.3678964674472809
1772883636184873000,5.259873046875,10.926824569702148,2.32761812210083,0.27756741642951965
1772883636201474000,5.27647412109375,10.905289649963379,1.8598214387893677,0.06400800496339798
1772883636218081300,5.293081298828125,11.062019348144531,1.5625132322311401,-0.24047867953777313
1772883636234685700,5.309685791015625,11.175678253173828,1.3310075998306274,-0.4342973232269287
1772883636251291100,5.326291015625,10.74437141418457,1.3555340766906738,-0.4504488706588745
1772883636267894000,5.34289404296875,9.739984512329102,1.602592945098877,-0.39541393518447876
1772883636284473300,5.359473388671875,8.840283393859863,1.8460626602172852,-0.3930211067199707
1772883636301092600,5.376092529296875,8.376075744628906,2.0620148181915283,-0.5132604837417603
1772883636317698300,5.3926982421875,8.393424034118652,2.1672990322113037,-0.4743770956993103
1772883636334302500,5.409302490234375,8.528019905090332,2.2061824798583984,-0.3314059376716614
1772883636350908400,5.425908447265625,8.69910717010498,2.283949136734009,-0.26979073882102966
1772883636367512600,5.4425126953125,8.889934539794922,2.3096721172332764,-0.22791635990142822
1772883636384118300,5.4591181640625,9.084949493408203,2.3784656524658203,-0.21415762603282928
1772883636400722700,5.47572265625,9.32423210144043,2.376072883605957,-0.19621145725250244
1772883636417328600,5.49232861328125,9.46899700164795,2.3395824432373047,-0.18783657252788544
1772883636433950700,5.50895068359375,9.468399047851562,2.35872483253479,-0.22073788940906525
1772883636450552300,5.52555224609375,9.236295700073242,2.4951157569885254,-0.2183450609445572
1772883636467156700,5.54215673828125,8.828917503356934,2.7870402336120605,-0.16151553392410278
1772883636483762200,5.55876220703125,8.3898344039917,3.001796007156372,-0.07597211748361588
1772883636500367000,5.5753671875,8.190631866455078,3.1860432624816895,-0.04486542567610741
1772883636516968700,5.59196875,8.252246856689453,3.2333016395568848,0.06041877344250679
1772883636533581300,5.608581298828125,8.388039588928223,3.16749906539917,0.10229317098855972
1772883636550182400,5.625182373046875,8.432307243347168,3.115455150604248,0.13998012244701385
1772883636566787000,5.641787109375,8.35573673248291,3.1334011554718018,0.16390834748744965
1772883636583376100,5.658376220703125,8.038089752197266,3.1926236152648926,0.1136590763926506
1772883636599998000,5.674998046875,7.658228874206543,3.284149169921875,0.09272187948226929
1772883636616603000,5.691602783203125,7.5565338134765625,3.3505499362945557,0.06999006122350693
1772883636633197000,5.708197021484375,7.795815944671631,3.3619158267974854,0.11186445504426956
1772883636649813200,5.724813232421875,8.283951759338379,3.3954153060913086,0.22372891008853912
1772883636666417400,5.74141748046875,8.700303077697754,3.4654054641723633,0.389431893825531
1772883636683017700,5.758017822265625,8.918647766113281,3.5772697925567627,0.4701896607875824
1772883636699627800,5.774627685546875,9.136993408203125,3.717249870300293,0.6137589812278748
1772883636716233500,5.7912333984375,9.594620704650879,3.85483717918396,0.7316055297851562
1772883636732834800,5.807834716796875,10.15035343170166,3.8733816146850586,0.9391828775405884
1772883636749447200,5.824447265625,10.817951202392578,3.8261234760284424,1.1934202909469604
1772883636766048000,5.841048095703125,11.362916946411133,3.6777684688568115,1.3663017749786377
1772883636782636500,5.857636474609375,11.323434829711914,3.7298123836517334,1.3668999671936035
1772883636799244500,5.87424462890625,10.804192543029785,3.8494534492492676,1.2891331911087036
1772883636815850000,5.89085009765625,10.318449020385742,3.954737663269043,1.2305090427398682
1772883636832455000,5.907454833984375,9.830313682556152,4.137788772583008,1.0193424224853516
1772883636849060400,5.924060302734375,9.454042434692383,4.05703067779541,1.0354939699172974
1772883636865664800,5.940664794921875,9.388239860534668,3.7633118629455566,1.1431710720062256
1772883636882270200,5.957270263671875,9.594022750854492,3.305086374282837,1.28255295753479
1772883636898875000,5.973875,9.89133071899414,2.7906293869018555,1.3866406679153442
1772883636915480800,5.990480712890625,10.177870750427246,2.3018953800201416,1.26699960231781
1772883636932102100,6.00710205078125,10.27896785736084,1.9405791759490967,1.0965110063552856
1772883636948704000,6.0237041015625,10.076175689697266,1.6965112686157227,0.8470591902732849
1772883636965309000,6.040308837890625,9.683155059814453,1.6510475873947144,0.6287141442298889
1772883636981898200,6.056898193359375,9.213563919067383,1.679761528968811,0.5742774605751038
1772883636998519600,6.07351953125,8.708678245544434,1.8454644680023193,0.722034215927124
1772883637015124200,6.090124267578125,8.403593063354492,2.1367905139923096,0.9361918568611145
1772883637031730000,6.10672998046875,8.424530029296875,2.3599212169647217,1.1910275220870972
1772883637048334600,6.12333447265625,8.522636413574219,2.5698914527893066,1.4075778722763062
1772883637064939300,6.139939208984375,8.423932075500488,2.806182861328125,1.6055840253829956
1772883637081526300,6.1565263671875,8.178069114685059,2.964707374572754,1.832902193069458
1772883637098148400,6.1731484375,8.01356315612793,3.0867412090301514,1.9256240129470825
1772883637114756400,6.18975634765625,8.062017440795898,3.0580272674560547,1.9250258207321167
1772883637131360000,6.206360107421875,8.668000221252441,2.8552355766296387,1.8340985774993896
1772883637147965000,6.22296484375,9.608379364013672,2.459223508834839,1.7258232831954956
1772883637164569600,6.239569580078125,10.325628280639648,2.0548365116119385,1.211964726448059
1772883637181173200,6.25617333984375,10.706685066223145,1.7001005411148071,0.623330295085907
1772883637197780200,6.2727802734375,10.561321258544922,1.5978072881698608,0.0687936544418335
1772883637214385400,6.289385498046875,10.039685249328613,1.7240287065505981,-0.2667997181415558
1772883637230982000,6.30598193359375,9.524032592773438,1.9196419715881348,-0.28175488114356995
1772883637247588600,6.322588623046875,9.037691116333008,2.1475582122802734,-0.1339980661869049
1772883637264183300,6.339183349609375,8.7176513671875,2.3874387741088867,0.003589233849197626
1772883637280792000,6.3557919921875,8.341978073120117,2.5776681900024414,0.1746760457754135
1772883637297396700,6.372396728515625,7.969893932342529,2.8217360973358154,0.29790642857551575
1772883637314002200,6.389002197265625,7.83410120010376,2.9766714572906494,0.4911268353462219
1772883637330606800,6.40560693359375,7.7940216064453125,3.1375887393951416,0.6454638838768005
1772883637347212300,6.42221240234375,7.752147197723389,3.3708889484405518,0.7525427341461182
1772883637363817000,6.43881689453125,7.7222371101379395,3.418147087097168,0.7627122402191162
1772883637380433700,6.45543359375,7.768298625946045,3.486342668533325,0.6867401003837585
1772883637397027300,6.47202734375,7.991429328918457,3.5234313011169434,0.5228317379951477
1772883637413632300,6.48863232421875,8.368897438049316,3.5054850578308105,0.33439695835113525
1772883637430254800,6.5052548828125,8.740981101989746,3.4923245906829834,0.11186445504426956
1772883637446856200,6.521856201171875,9.132805824279785,3.482753276824951,-0.014356935396790504
1772883637463460900,6.5384609375,9.538987159729004,3.4498519897460938,-0.14117653667926788
1772883637480050000,6.5550498046875,10.036694526672363,3.432504177093506,-0.24466611444950104
1772883637496674300,6.57167431640625,10.630712509155273,3.3954153060913086,-0.2153540402650833
1772883637513277000,6.58827685546875,11.240882873535156,3.3379876613616943,0.029910283163189888
1772883637529872400,6.604872314453125,11.697911262512207,3.5048868656158447,0.09990034252405167
1772883637546478000,6.62147802734375,11.684751510620117,3.7334015369415283,0.22612173855304718
1772883637563100000,6.638099853515625,11.534003257751465,3.888935089111328,0.3002992272377014
1772883637579697000,6.65469677734375,11.611769676208496,4.039084434509277,0.19561325013637543
1772883637596298000,6.671298095703125,11.835498809814453,4.052245140075684,0.0891326442360878
1772883637612911000,6.6879111328125,12.371491432189941,3.597608804702759,0.1782652884721756
1772883637629512200,6.70451220703125,13.064811706542969,2.8725836277008057,0.2602194547653198
1772883637646117000,6.7211171875,13.215559005737305,2.228316068649292,0.23030917346477509
1772883637662721800,6.7377216796875,12.75912857055664,1.7461622953414917,0.04307080805301666
1772883637679310800,6.754310791015625,12.056835174560547,1.4189438819885254,-0.07477571070194244
1772883637695932400,6.770932373046875,11.349157333374023,1.3124631643295288,-0.23449662327766418
1772883637712537300,6.787537353515625,10.426724433898926,1.212562918663025,-0.35892340540885925
1772883637729142500,6.804142578125,9.316454887390137,1.191625714302063,-0.4773681163787842
1772883637745747500,6.82074755859375,8.117053031921387,1.31365966796875,-0.5748756527900696
1772883637762335000,6.8373349609375,7.155735969543457,1.5284154415130615,-0.6442674994468689
1772883637778940700,6.853940673828125,6.6382880210876465,1.7682958841323853,-0.768694281578064
1772883637795549000,6.870548828125,6.594619274139404,1.83828604221344,-0.6293123364448547
1772883637812154600,6.887154541015625,7.036095142364502,1.8652052879333496,-0.40677985548973083
1772883637828757000,6.903757080078125,7.57806921005249,1.8179470300674438,-0.36251261830329895
1772883637845366500,6.920366455078125,7.985447406768799,1.7467604875564575,-0.45643091201782227
1772883637861968600,6.93696875,8.451449394226074,1.6468602418899536,-0.48813581466674805
1772883637878561500,6.9535615234375,8.84925651550293,1.5792629718780518,-0.5102694034576416
1772883637895179500,6.970179443359375,9.306285858154297,1.4979069232940674,-0.46061834692955017
1772883637911801600,6.986801513671875,9.585049629211426,1.4662020206451416,-0.357128769159317
1772883637928402700,7.003402587890625,9.625727653503418,1.6049858331680298,-0.24646073579788208
1772883637944993800,7.019993896484375,9.466604232788086,1.7730815410614014,0.018544375896453857
1772883637961613000,7.036613037109375,9.142376899719238,2.059023857116699,0.30508488416671753
1772883637978219300,7.05321923828125,8.72183895111084,2.3503501415252686,0.45284169912338257
1772883637994823700,7.06982373046875,8.445467948913574,2.60339093208313,0.6957131624221802
1772883638011428600,7.0864287109375,8.306085586547852,2.733799934387207,0.9936196208000183
1772883638028033300,7.103033203125,8.237890243530273,2.884547710418701,1.1772687435150146
1772883638044622300,7.119622314453125,8.327022552490234,2.9856443405151367,1.2490534782409668
1772883638061243400,7.136243408203125,8.38265609741211,3.10109806060791,1.2544373273849487
1772883638077851400,7.152851318359375,8.408976554870605,3.1926236152648926,1.1832507848739624
1772883638094453500,7.16945361328125,8.414958953857422,3.3373894691467285,1.0265209674835205
1772883638111059000,7.186058837890625,8.257631301879883,3.5509488582611084,1.0289137363433838
1772883638127663600,7.20266357421875,8.196015357971191,3.793820381164551,1.1072787046432495
1772883638144254500,7.21925439453125,8.476573944091797,3.943969964981079,1.2598211765289307
1772883638160874000,7.2358740234375,8.758329391479492,3.9942193031311035,1.3256237506866455
1772883638177463000,7.252463134765625,8.98086166381836,4.107280254364014,1.2915260791778564
1772883638194083800,7.269083740234375,9.117850303649902,4.199403762817383,1.296311616897583
1772883638210689300,7.285689208984375,9.336793899536133,4.273581027984619,1.3196417093276978
1772883638227294200,7.302294189453125,9.689735412597656,4.137190341949463,1.4937195777893066
1772883638243882500,7.318882568359375,9.966106414794922,3.972085475921631,1.552941918373108
1772883638260490500,7.335490478515625,10.385448455810547,3.762713670730591,1.3914263248443604
1772883638277096000,7.352095947265625,10.791031837463379,3.70767879486084,1.0444670915603638
1772883638293700600,7.36870068359375,10.928619384765625,3.6634113788604736,0.7992027401924133
1772883638310306600,7.385306640625,10.875977516174316,3.620938777923584,0.641276478767395
1772883638326910700,7.40191064453125,10.862218856811523,3.714258909225464,0.3122633695602417
1772883638343516200,7.41851611328125,10.709077835083008,3.6472599506378174,0.11186445504426956
1772883638360120800,7.435120849609375,10.592427253723145,3.4791641235351562,0.05383851006627083
1772883638376715500,7.451715576171875,10.73719310760498,3.2165517807006836,0.17527425289154053
1772883638393331000,7.4683310546875,10.947163581848145,2.8426733016967773,0.49172505736351013
1772883638409954000,7.4849541015625,11.112268447875977,2.5363919734954834,0.7088736891746521
1772883638426554600,7.5015546875,11.036894798278809,2.2719850540161133,0.8171489238739014
1772883638443144000,7.51814404296875,10.5361967086792,2.104487419128418,0.6801598072052002
1772883638459764700,7.5347646484375,10.046265602111816,2.111665964126587,0.381655216217041
1772883638476372200,7.551372314453125,9.734601020812988,2.1373889446258545,0.3116651475429535
1772883638492975600,7.5679755859375,9.670592308044434,2.255235433578491,0.389431893825531
1772883638509580500,7.58458056640625,10.036694526672363,2.383251428604126,0.45523449778556824
1772883638526185200,7.601185302734375,10.453045845031738,2.444268226623535,0.5874379873275757
1772883638542809600,7.6178095703125,10.29452133178711,2.5501506328582764,0.8805587291717529
1772883638559395300,7.634395263671875,9.518050193786621,2.7451658248901367,1.1593226194381714
1772883638575993000,7.6509931640625,8.8109712600708,3.022733211517334,1.4141582250595093
1772883638592606000,7.66760595703125,8.131409645080566,3.104687452316284,1.633699655532837
1772883638609211000,7.6842109375,7.714460372924805,3.1477582454681396,1.674377679824829
1772883638625799200,7.700799072265625,7.714460372924805,3.1148569583892822,1.5643078088760376
1772883638642422800,7.7174228515625,8.129016876220703,2.9563324451446533,1.6372889280319214
1772883638659025700,7.734025634765625,8.35872745513916,2.7571299076080322,1.734796404838562
1772883638675603000,7.75060302734375,8.176873207092285,2.6937201023101807,1.6157535314559937
1772883638692236300,7.767236328125,7.646862983703613,2.7768707275390625,1.25144624710083
1772883638708841500,7.783841552734375,7.09711217880249,3.0209386348724365,0.5629115104675293
1772883638725446000,7.80044580078125,6.592824459075928,3.1728827953338623,0.031106693670153618
1772883638742034400,7.817034423828125,6.314060688018799,3.3882367610931396,-0.3439682424068451
1772883638758642400,7.833642333984375,6.491727828979492,3.5395829677581787,-0.4821537733078003
1772883638775241200,7.8502412109375,6.906284332275391,3.671786308288574,-0.3451646566390991
1772883638791852800,7.866852783203125,7.276573657989502,3.899702787399292,-0.1782652884721756
1772883638808458500,7.88345849609375,7.786843299865723,4.074976921081543,0.10229317098855972
1772883638825062700,7.900062744140625,8.083553314208984,4.176671981811523,0.34576287865638733
1772883638841668000,7.916668212890625,8.070392608642578,4.311866283416748,0.24167509377002716
1772883638858270500,7.9332705078125,7.914859294891357,4.369294166564941,0.02751746028661728
1772883638874862800,7.94986279296875,7.92861795425415,4.36091947555542,-0.12083754688501358
1772883638891482400,7.966482421875,8.210970878601074,4.326223373413086,-0.1944168359041214
1772883638908106000,7.98310595703125,8.771489143371582,4.266402721405029,-0.31764721870422363
1772883638924706800,7.999706787109375,9.261420249938965,4.137788772583008,-0.3451646566390991
1772883638941295400,8.01629541015625,9.394221305847168,4.140779495239258,-0.5276173949241638
1772883638957922800,8.0329228515625,9.3457670211792,4.140779495239258,-0.6329016089439392
1772883638974501000,8.049501220703124,9.352945327758789,4.2281174659729,-0.7328019142150879
1772883638991127600,8.06612744140625,9.345169067382812,4.367499351501465,-0.8033902049064636
1772883639007732500,8.082732421875,9.326624870300293,4.596612453460693,-0.7680960893630981
1772883639024337000,8.0993369140625,9.403194427490234,4.682155609130859,-0.5814558863639832
1772883639040928000,8.115927978515625,9.600004196166992,4.706682205200195,-0.3762713670730591
1772883639057541600,8.132541748046876,9.806385040283203,4.7126641273498535,-0.2961117923259735
1772883639074124800,8.149124755859376,9.826126098632812,4.89990234375,-0.31405797600746155
1772883639090757400,8.16575732421875,9.833304405212402,5.080560684204102,-0.15972091257572174
1772883639107362800,8.18236279296875,10.01874828338623,5.233701229095459,0.050847481936216354
1772883639123967200,8.19896728515625,10.117452621459961,5.36769962310791,0.1704886108636856
1772883639140556800,8.215556884765626,10.197013854980469,5.289932727813721,0.4181457459926605
1772883639157163000,8.2321630859375,10.551151275634766,5.0638108253479,0.5006981492042542
1772883639173766400,8.248766357421875,10.683355331420898,4.920839786529541,0.5946164131164551
1772883639190388000,8.265387939453126,10.631311416625977,4.473381996154785,0.8261220455169678
1772883639206993200,8.2819931640625,10.867602348327637,3.8500516414642334,0.7100701332092285
1772883639223580700,8.29858056640625,11.379068374633789,3.0717861652374268,0.5724828243255615
1772883639240189700,8.315189697265625,11.56869888305664,2.554338216781616,0.28534409403800964
1772883639256794000,8.331794189453126,11.176874160766602,2.45204496383667,0.04307080805301666
1772883639273384200,8.34838427734375,10.409377098083496,2.3090739250183105,0.0891326442360878
1772883639290008000,8.365008056640624,9.817152976989746,2.4472594261169434,-0.0023928226437419653
1772883639306610000,8.38160986328125,9.200403213500977,2.3886351585388184,-0.10408778488636017
1772883639323214300,8.39821435546875,8.70508861541748,2.503490686416626,-0.16749759018421173
1772883639339820000,8.414820068359376,8.12123966217041,2.844467878341675,0.06759724020957947
1772883639356411600,8.43141162109375,7.909475326538086,3.2745778560638428,0.4211367964744568
1772883639373017000,8.44801708984375,8.136195182800293,3.5473594665527344,0.7136593461036682
1772883639389638100,8.46463818359375,8.211568832397461,3.596412420272827,0.7184450030326843
1772883639406253800,8.48125390625,7.864011764526367,3.6849467754364014,0.529412031173706
1772883639422854400,8.4978544921875,7.507481098175049,3.7782669067382812,0.364905446767807
1772883639439468800,8.51446875,7.670193195343018,3.7561333179473877,0.31106695532798767
1772883639456071400,8.531071533203125,8.074580192565918,3.5988051891326904,0.24107688665390015
1772883639472651000,8.547651123046874,8.22712230682373,3.586841106414795,0.1537388563156128
1772883639489279200,8.564279296875,8.118846893310547,3.7716867923736572,0.1704886108636856
1772883639505884200,8.58088427734375,7.8556365966796875,4.008575916290283,0.16869398951530457
1772883639522488800,8.59748876953125,7.695915699005127,4.144967079162598,0.26141586899757385
1772883639539081500,8.61408154296875,7.743772506713867,4.135395526885986,0.2805584669113159
1772883639555682600,8.6306826171875,7.661818027496338,4.177868366241455,0.26201409101486206
1772883639572290800,8.647290771484375,7.516454219818115,4.318446636199951,0.43609192967414856
1772883639588909800,8.663909912109375,7.569694519042969,4.318446636199951,0.5072783827781677
1772883639605514500,8.680514404296876,7.727620601654053,4.277768611907959,0.39601215720176697
1772883639622119200,8.697119140625,7.779066562652588,4.29451847076416,0.20458634197711945
1772883639638721000,8.713720947265625,7.833503246307373,4.405186653137207,0.14775680005550385
1772883639655329300,8.730329345703124,7.759923934936523,4.566103935241699,0.2787638306617737
1772883639671921200,8.746921142578126,7.820940971374512,4.64805793762207,0.3170489966869354
1772883639688539400,8.763539306640626,7.788637638092041,4.810171604156494,0.3038884699344635
1772883639705144800,8.780144775390625,7.638488292694092,4.951348304748535,0.4013960063457489
1772883639721729500,8.7967294921875,7.6875410079956055,5.18105936050415,0.5276173949241638
1772883639738344400,8.813344482421876,8.022536277770996,5.259424209594727,0.7507480978965759
1772883639754946000,8.829946044921876,8.35274600982666,5.252843856811523,0.7776673436164856
1772883639771551700,8.8465517578125,8.61595630645752,5.232504844665527,0.7328019142150879
1772883639788156700,8.86315673828125,8.583653450012207,5.2492547035217285,0.9248259663581848
1772883639804761600,8.87976171875,9.1112699508667,5.300102233886719,1.2711870670318604
1772883639821363000,8.896363037109374,10.062417030334473,5.362913608551025,1.2759727239608765
1772883639837971700,8.9129716796875,10.728219985961914,5.359922885894775,1.357926845550537
1772883639854572300,8.929572265625,10.926226615905762,5.505885124206543,1.3627125024795532
1772883639871178800,8.9461787109375,10.560124397277832,5.62672233581543,1.2843475341796875
1772883639887803600,8.9628037109375,9.972686767578125,5.511268615722656,1.1766705513000488
1772883639904405500,8.979405517578124,9.584450721740723,5.272584915161133,1.1485549211502075
1772883639921010200,8.99601025390625,9.176474571228027,4.842474937438965,1.1383854150772095
1772883639937599500,9.012599609375,9.288339614868164,4.2454657554626465,1.1521440744400024
1772883639954220300,9.02922021484375,9.611968994140625,3.569493293762207,1.1455638408660889
1772883639970826800,9.04582666015625,9.70229721069336,3.0831520557403564,1.074377417564392
1772883639987431200,9.06243115234375,9.601799011230469,2.7349963188171387,0.8141579031944275
1772883640004035800,9.079035888671875,9.470193862915039,2.5531418323516846,0.6029912829399109
1772883640020640800,9.095640869140626,9.442078590393066,2.8522446155548096,0.8781659007072449
1772883640037229800,9.112229736328125,9.616754531860352,3.0717861652374268,1.1371889114379883
1772883640053853200,9.128853271484376,9.521639823913574,3.305086374282837,1.1874382495880127
1772883640070451700,9.14545166015625,8.794221878051758,3.570091485977173,1.1647064685821533
1772883640087077400,9.162077392578125,8.22114086151123,3.8021950721740723,1.2987045049667358
1772883640103666200,9.178666259765626,8.148757934570312,3.88594388961792,1.4763715267181396
1772883640120271000,9.19527099609375,8.084749221801758,4.074378967285156,1.7413766384124756
1772883640136876500,9.21187646484375,8.051250457763672,4.2209391593933105,1.389033555984497
1772883640153477600,9.2284775390625,8.595617294311523,3.7531423568725586,1.3298112154006958
1772883640170092800,9.2450927734375,9.18724250793457,3.5126636028289795,1.1330015659332275
1772883640186690000,9.26168994140625,9.699904441833496,3.169891834259033,0.9744769930839539
