time,seconds_elapsed,z,y,x
1772883631062175500,0.137175537109375,8.225327491760254,3.207578659057617,0.08614161610603333
1772883631078785300,0.153785400390625,8.535198211669922,3.2171499729156494,-0.11186445504426956
1772883631095418000,0.170418212890625,8.71226692199707,3.1722846031188965,-0.19920247793197632
1772883631112003300,0.18700341796875,8.61894702911377,3.2578279972076416,-0.2841476798057556
1772883631128630300,0.20363037109375,8.678768157958984,3.43908429145813,-0.14416755735874176
1772883631145222700,0.22022265625,8.890532493591309,3.473181962966919,0.08434699475765228
1772883631161834000,0.236833984375,9.10229778289795,3.417548894882202,0.13040883839130402
1772883631178439700,0.253439697265625,9.098708152770996,3.346362352371216,0.1010967567563057
1772883631195042600,0.27004248046875,8.98086166381836,3.2721848487854004,0.1824527233839035
1772883631211634400,0.286634521484375,8.881559371948242,3.208775281906128,0.18723836541175842
1772883631228247600,0.30324755859375,8.93420124053955,3.2099716663360596,0.1824527233839035
1772883631244859600,0.319859619140625,9.080761909484863,3.311666488647461,0.2350948303937912
1772883631261471500,0.336471435546875,9.109476089477539,3.345165967941284,0.268594354391098
1772883631278068000,0.35306787109375,9.132805824279785,3.387638568878174,0.373878538608551
1772883631294690800,0.36969091796875,9.18724250793457,3.3200414180755615,0.46420758962631226
1772883631311266300,0.386266357421875,9.135796546936035,3.257229804992676,0.46360939741134644
1772883631327900700,0.402900634765625,9.32303524017334,3.263810157775879,0.49172505736351013
1772883631344487400,0.4194873046875,9.422935485839844,3.3170504570007324,0.5964110493659973
1772883631361095200,0.43609521484375,9.364909172058105,3.349353551864624,0.625723123550415
1772883631377684200,0.452684326171875,9.274580955505371,3.33858585357666,0.664606511592865
1772883631394307000,0.46930712890625,9.364311218261719,3.3882367610931396,0.6071787476539612
1772883631410895600,0.4858955078125,9.791430473327637,3.315854072570801,0.623330295085907
1772883631427499300,0.502499267578125,9.891928672790527,3.3032915592193604,0.584446907043457
1772883631444115000,0.519114990234375,10.092328071594238,3.324826955795288,0.544965386390686
1772883631460724200,0.53572412109375,10.166504859924316,3.2057840824127197,0.5581258535385132
1772883631477331000,0.5523310546875,10.15573787689209,3.197409152984619,0.4001995921134949
1772883631493935400,0.568935302734375,10.194621086120605,3.3194432258605957,0.10408778488636017
1772883631510525200,0.585525146484375,10.427921295166016,3.163909673690796,0.16390834748744965
1772883631527127000,0.602126953125,10.706685066223145,3.2506494522094727,-0.16689938306808472
1772883631543737300,0.6187373046875,10.597811698913574,3.601198196411133,-0.43130627274513245
1772883631560342500,0.635342529296875,10.171889305114746,3.8590247631073,-0.3696911036968231
1772883631576947000,0.651947021484375,9.640682220458984,3.9942193031311035,-0.016749758273363113
1772883631593552400,0.668552490234375,9.613164901733398,3.8883368968963623,0.5952146053314209
1772883631610158800,0.685158935546875,10.367502212524414,3.521636724472046,0.7890332937240601
1772883631626768100,0.70176806640625,11.408380508422852,2.6847469806671143,0.9391828775405884
1772883631643381000,0.718381103515625,11.856435775756836,2.029113531112671,0.9750752449035645
1772883631659988500,0.734988525390625,11.752347946166992,1.622931957244873,0.7190431952476501
1772883631676589800,0.75158984375,11.37488079071045,1.469791293144226,0.2847459018230438
1772883631693197000,0.768197021484375,11.254042625427246,1.342971682548523,-0.1986042857170105
1772883631709786600,0.78478662109375,11.13021469116211,1.2197413444519043,-0.4905286431312561
1772883631726375200,0.801375244140625,10.654043197631836,1.3112667798995972,-0.6113662123680115
1772883631743009800,0.818009765625,10.1814603805542,1.534995675086975,-0.5545366406440735
1772883631759620900,0.834620849609375,9.77826976776123,1.649253010749817,-0.4127618968486786
1772883631776192500,0.851192626953125,9.567103385925293,1.6995022296905518,-0.36311084032058716
1772883631792826600,0.86782666015625,9.541379928588867,1.8035900592803955,-0.30508488416671753
1772883631809417200,0.884417236328125,9.305088996887207,1.9716858863830566,-0.04905286431312561
1772883631826020600,0.9010205078125,8.934800148010254,2.1475582122802734,0.13160525262355804
1772883631842630700,0.917630615234375,8.765507698059082,2.2510478496551514,0.18125630915164948
1772883631859247600,0.93424755859375,8.625527381896973,2.316850423812866,0.14895321428775787
1772883631875849200,0.95084912109375,8.400003433227539,2.352742910385132,0.12203395366668701
1772883631892458800,0.967458740234375,8.236095428466797,2.403590440750122,0.15194423496723175
1772883631909071000,0.984071044921875,7.941778182983398,2.548356056213379,0.17347964644432068
1772883631925642800,1.000642822265625,7.7802629470825195,2.7565317153930664,0.23330020904541016
1772883631942273300,1.017273193359375,7.7114691734313965,2.8797619342803955,0.30628129839897156
1772883631958877000,1.033876953125,7.616952896118164,3.0514471530914307,0.2315055876970291
1772883631975468300,1.05046826171875,7.672585964202881,3.171088218688965,0.3326023519039154
1772883631992087800,1.067087890625,7.673183917999268,3.2165517807006836,0.576670229434967
1772883632008678700,1.0836787109375,7.701898097991943,3.287140130996704,0.7639086246490479
1772883632025277700,1.100277587890625,7.7353973388671875,3.3104701042175293,0.8739784955978394
1772883632041902300,1.11690234375,7.878368377685547,3.3930225372314453,0.9690931439399719
1772883632058498600,1.13349853515625,8.045866012573242,3.468994617462158,1.236491084098816
1772883632075097300,1.150097412109375,8.168498039245605,3.6131622791290283,1.3280165195465088
1772883632091705000,1.166705078125,8.180462837219238,3.751945972442627,1.3722838163375854
1772883632108313000,1.18331298828125,8.220541954040527,3.896113395690918,1.358525037765503
1772883632124922400,1.19992236328125,8.341978073120117,4.013361930847168,1.2197413444519043
1772883632141530400,1.2165302734375,8.556135177612305,4.05403995513916,1.1569297313690186
1772883632158136800,1.23313671875,8.611170768737793,4.211966037750244,1.2340983152389526
1772883632174743800,1.249743896484375,8.617152214050293,4.445266246795654,1.389033555984497
1772883632191349800,1.266349853515625,8.877969741821289,4.624129772186279,1.561316728591919
1772883632207953000,1.282952880859375,9.034700393676758,4.711467742919922,1.5894324779510498
1772883632224561700,1.299561767578125,9.137591361999512,4.800002098083496,1.46500563621521
1772883632241163800,1.316163818359375,9.425328254699707,4.722235679626465,1.415354609489441
1772883632257742600,1.33274267578125,9.850054740905762,4.493721008300781,1.2436695098876953
1772883632274375400,1.34937548828125,10.186843872070312,4.274777889251709,0.9296116232872009
1772883632290978600,1.365978515625,10.069596290588379,4.323830604553223,0.638883650302887
1772883632307584300,1.382584228515625,9.827322959899902,4.403990268707275,0.4588237404823303
1772883632324189400,1.399189453125,9.793225288391113,4.540979385375977,0.03888336941599846
1772883632340795100,1.415795166015625,9.488738059997559,4.621138572692871,-0.21236300468444824
1772883632357382400,1.43238232421875,9.107083320617676,4.559523582458496,-0.22971096634864807
1772883632374005000,1.4490048828125,8.893523216247559,4.254438877105713,-0.07776673883199692
1772883632390611200,1.465611083984375,9.122636795043945,3.7262229919433594,0.4911268353462219
1772883632407200300,1.4822001953125,9.806983947753906,3.1310083866119385,0.99481600522995
1772883632423819000,1.498819091796875,10.435697555541992,2.5674986839294434,1.1258230209350586
1772883632440432000,1.51543212890625,10.726426124572754,2.111665964126587,1.0444670915603638
1772883632457015000,1.53201513671875,10.552348136901855,1.9100706577301025,0.9433703422546387
1772883632473639200,1.54863916015625,9.93978500366211,1.8239290714263916,0.7070791125297546
1772883632490239500,1.565239501953125,9.221938133239746,1.7467604875564575,0.4139583110809326
1772883632506829300,1.581829345703125,8.606385231018066,1.832902193069458,0.18843477964401245
1772883632523447600,1.598447509765625,8.213961601257324,2.007578134536743,-0.03768695518374443
1772883632540043500,1.61504345703125,8.14217758178711,2.1948165893554688,-0.2273181527853012
1772883632556648700,1.631648681640625,8.36411190032959,2.38265323638916,-0.10767702013254166
1772883632573252600,1.648252685546875,8.37846851348877,2.4813570976257324,0.12741780281066895
1772883632589855000,1.66485498046875,8.307282447814941,2.5633113384246826,0.5497509837150574
1772883632606454500,1.68145458984375,8.58066177368164,2.7014968395233154,1.0462616682052612
1772883632623068700,1.698068603515625,9.17587661743164,2.7661030292510986,1.521835207939148
1772883632639691000,1.71469091796875,9.882357597351074,2.7517459392547607,1.866999864578247
1772883632656290000,1.7312900390625,10.302896499633789,2.5639095306396484,1.9920248985290527
1772883632672897000,1.74789697265625,10.05703353881836,2.3473589420318604,1.8340985774993896
1772883632689496000,1.76449609375,9.371489524841309,2.2618155479431152,1.4404792785644531
1772883632706109200,1.781109130859375,8.766703605651855,2.276172637939453,1.1569297313690186
1772883632722712600,1.797712646484375,8.346165657043457,2.417349100112915,0.9355936646461487
1772883632739319800,1.81431982421875,8.036294937133789,2.5776681900024414,0.8045865893363953
1772883632755919600,1.830919677734375,8.001599311828613,2.644068956375122,0.8195417523384094
1772883632772527400,1.84752734375,8.117650985717773,2.630310297012329,0.9433703422546387
1772883632789131000,1.864131103515625,8.225327491760254,2.7361927032470703,0.9481559991836548
1772883632805722600,1.88072265625,8.281558990478516,2.864806890487671,1.1306086778640747
1772883632822340400,1.89734033203125,8.416155815124512,3.170490026473999,1.3854442834854126
1772883632838942700,1.913942626953125,8.558527946472168,3.3092737197875977,1.581655740737915
1772883632855553800,1.9305537109375,8.583054542541504,3.3649067878723145,1.7976080179214478
1772883632872140000,1.94714013671875,8.632107734680176,3.359523057937622,1.9932212829589844
1772883632888751000,1.963751220703125,8.724231719970703,3.269792079925537,1.934597134590149
1772883632905344300,1.98034423828125,8.740981101989746,3.31465744972229,1.705484390258789
1772883632921959000,1.996958984375,8.94377326965332,3.4097721576690674,1.5134602785110474
1772883632938564900,2.01356494140625,9.120243072509766,3.4779677391052246,1.5990036725997925
1772883632955169300,2.030169189453125,9.128020286560059,3.634697675704956,1.7676976919174194
1772883632971791600,2.04679150390625,9.04845905303955,3.8566319942474365,1.9513468742370605
1772883632988393700,2.063393798828125,9.07418155670166,4.009772777557373,1.9860427379608154
1772883633005013000,2.080012939453125,9.399007797241211,3.996013879776001,1.8167506456375122
1772883633021614300,2.0966142578125,10.04447078704834,3.772883176803589,1.825723648071289
1772883633038196700,2.11319677734375,10.674382209777832,3.6496527194976807,1.9166508913040161
1772883633054817300,2.1298173828125,11.182258605957031,3.593421459197998,1.913659930229187
1772883633071493000,2.1464931640625,11.617752075195312,3.569493293762207,1.848455548286438
1772883633088022500,2.1630224609375,12.06939697265625,3.3996028900146484,1.6055840253829956
1772883633104617000,2.179616943359375,12.308679580688477,3.510270833969116,1.246660590171814
1772883633121232400,2.196232421875,12.029317855834961,3.6364922523498535,1.28255295753479
1772883633137836300,2.212836181640625,11.663215637207031,3.352344512939453,1.588834285736084
1772883633154445300,2.2294453125,11.47537899017334,2.7499513626098633,1.8436698913574219
1772883633171040800,2.246040771484375,11.261221885681152,1.994417667388916,2.059023857116699
1772883633187653400,2.2626533203125,11.054242134094238,1.2430713176727295,1.85383939743042
1772883633204242400,2.279242431640625,10.780862808227539,0.753140926361084,1.1054840087890625
1772883633220862700,2.29586279296875,10.104291915893555,0.589830756187439,0.2955136001110077
1772883633237464600,2.312464599609375,9.169894218444824,0.4737788736820221,-0.2554338276386261
1772883633254077400,2.329077392578125,8.487939834594727,0.4737788736820221,-0.5575276613235474
1772883633270678500,2.345678466796875,7.717451095581055,0.7339983582496643,-0.6323033571243286
1772883633287292200,2.362292236328125,7.148557662963867,1.2436695098876953,-0.4821537733078003
1772883633303869200,2.378869140625,7.004390239715576,1.6372889280319214,-0.23449662327766418
1772883633320491000,2.395490966796875,7.558926582336426,1.8963119983673096,-0.21176479756832123
1772883633337100000,2.41210009765625,8.429315567016602,1.7228323221206665,-0.07896314561367035
1772883633353688000,2.42868798828125,9.062217712402344,1.5212370157241821,0.2315055876970291
1772883633370300400,2.445300537109375,9.208778381347656,1.5002998113632202,0.6610172390937805
1772883633386900000,2.46189990234375,9.33320426940918,1.5864413976669312,0.857228696346283
1772883633403494000,2.478493896484375,9.832108497619629,1.5242279767990112,0.8967102766036987
1772883633420112000,2.49511181640625,10.412965774536133,1.3597214221954346,0.7441678643226624
1772883633436718800,2.51171875,10.49073314666748,1.2191431522369385,0.4695914387702942
1772883633453320700,2.52832080078125,10.225129127502441,1.2424731254577637,0.21296121180057526
1772883633469928000,2.544927978515625,9.641280174255371,1.4997016191482544,0.17527425289154053
1772883633486546000,2.5615458984375,9.06580638885498,1.8418751955032349,0.2961117923259735
1772883633503127300,2.578127197265625,8.795417785644531,2.0482561588287354,0.44745782017707825
1772883633519748900,2.594748779296875,8.755936622619629,2.1236300468444824,0.4911268353462219
1772883633536358700,2.611358642578125,8.764909744262695,2.1475582122802734,0.529412031173706
1772883633552966000,2.6279658203125,8.784051895141602,2.1481566429138184,0.5102694034576416
1772883633569556700,2.644556640625,8.897710800170898,2.2157537937164307,0.529412031173706
1772883633586174200,2.66117431640625,9.029914855957031,2.280359983444214,0.45224347710609436
1772883633602754300,2.67775439453125,9.017352104187012,2.4149563312530518,0.33379876613616943
1772883633619386400,2.694386474609375,8.975478172302246,2.568096876144409,0.2638086974620819
1772883633635989500,2.710989501953125,8.876175880432129,2.7493531703948975,0.26560330390930176
1772883633652600600,2.7276005859375,8.71645450592041,2.908475875854492,0.4301098585128784
1772883633669188600,2.744188720703125,8.719446182250977,3.0275187492370605,0.5072783827781677
1772883633685803300,2.76080322265625,8.890532493591309,3.077768087387085,0.4875376224517822
1772883633702419500,2.77741943359375,9.158528327941895,3.095116138458252,0.4576273262500763
1772883633719015200,2.79401513671875,9.415757179260254,3.1178479194641113,0.389431893825531
1772883633735604200,2.810604248046875,9.68375301361084,3.1345977783203125,0.40737804770469666
1772883633752230100,2.827230224609375,10.00857925415039,3.157329559326172,0.41515472531318665
1772883633768816000,2.843816162109375,10.37348461151123,3.1268210411071777,0.4941178858280182
1772883633785460500,2.86046044921875,10.527223587036133,3.1130621433258057,0.6221339106559753
1772883633802025700,2.877025634765625,10.368699073791504,3.187239646911621,0.7100701332092285
1772883633818636500,2.893636474609375,10.059426307678223,3.314059257507324,0.5880361795425415
1772883633835232300,2.910232177734375,9.874580383300781,3.4002010822296143,0.364905446767807
1772883633851856400,2.9268564453125,9.850652694702148,3.315255880355835,0.18305093050003052
1772883633868450000,2.943449951171875,9.949954986572266,3.3888349533081055,0.13040883839130402
1772883633885053200,2.96005322265625,10.059426307678223,3.418147087097168,0.1824527233839035
1772883633901660700,2.97666064453125,10.1276216506958,3.1310083866119385,0.2949153780937195
1772883633918262800,2.9932626953125,10.351350784301758,2.767897605895996,0.49651068449020386
1772883633934869200,3.009869140625,10.64507007598877,2.214557409286499,0.6340979933738708
1772883633951471900,3.026471923828125,10.995019912719727,1.6917256116867065,0.6855437159538269
1772883633968082400,3.04308251953125,11.044073104858398,1.3483555316925049,0.5874379873275757
1772883633984680700,3.0596806640625,10.447661399841309,1.2041879892349243,0.4749752879142761
1772883634001286000,3.076285888671875,9.524032592773438,1.2275179624557495,0.5042873620986938
1772883634017910000,3.092909912109375,8.73619556427002,1.358525037765503,0.4043870270252228
1772883634034500400,3.109500244140625,8.736793518066406,1.4482558965682983,-0.01136590726673603
1772883634051123500,3.12612353515625,9.136395454406738,1.3465609550476074,0.10049854964017868
1772883634067721500,3.142721435546875,9.446864128112793,1.5188441276550293,0.47796630859375
1772883634084328400,3.159328369140625,9.65503978729248,1.7850457429885864,0.97148597240448
1772883634100932600,3.1759326171875,9.53061294555664,1.975873351097107,1.4470595121383667
1772883634117536300,3.192536376953125,9.2859468460083,2.334796667098999,1.6995022296905518
1772883634134147600,3.209147705078125,9.047262191772461,2.665006160736084,1.9710876941680908
1772883634150745000,3.2257451171875,9.19442081451416,2.939582586288452,1.9387845993041992
1772883634167338000,3.242337890625,9.876375198364258,3.0065815448760986,1.7060825824737549
1772883634183942100,3.258942138671875,10.630712509155273,2.809173822402954,1.662413477897644
1772883634200553700,3.2755537109375,10.936994552612305,2.5872395038604736,1.7353945970535278
1772883634217169200,3.292169189453125,10.797014236450195,2.38983154296875,1.7252250909805298
1772883634233774300,3.3087744140625,10.357333183288574,2.2438695430755615,1.3722838163375854
1772883634250379000,3.32537890625,9.824331283569336,2.166102647781372,0.8201399445533752
1772883634266954500,3.34195458984375,9.22253704071045,2.149951219558716,0.27816563844680786
1772883634283563000,3.35856298828125,8.578269004821777,2.2265214920043945,0.014356935396790504
1772883634300179500,3.375179443359375,7.942376613616943,2.449054002761841,0.010169495828449726
1772883634316786000,3.391785888671875,7.469794273376465,2.6871397495269775,0.08614161610603333
1772883634333388300,3.40838818359375,7.198208808898926,2.861217737197876,0.09391828626394272
1772883634349999400,3.424999267578125,7.066603660583496,2.998805046081543,0.09092725813388824
1772883634366601500,3.4416015625,7.001399040222168,3.142374277114868,0.025722842663526535
1772883634383193600,3.458193603515625,6.956533432006836,3.2416765689849854,0.06939185410737991
1772883634399798300,3.47479833984375,7.269395351409912,3.407379388809204,0.13100704550743103
1772883634416416300,3.491416259765625,7.762316703796387,3.4881372451782227,0.3248256742954254
1772883634433019400,3.508019287109375,8.030312538146973,3.5371899604797363,0.46719861030578613
1772883634449632300,3.52463232421875,8.215158462524414,3.6257245540618896,0.44327038526535034
1772883634466234400,3.541234375,8.58066177368164,3.7124643325805664,0.3026920557022095
1772883634482871600,3.55787158203125,8.846863746643066,3.768695592880249,0.16331014037132263
1772883634499447000,3.574447021484375,8.840283393859863,3.803989887237549,-0.03290131315588951
1772883634516053500,3.591053466796875,8.81934642791748,3.84765887260437,-0.1423729509115219
1772883634532672500,3.607672607421875,9.193822860717773,3.850649833679199,-0.010169495828449726
1772883634549269200,3.624269287109375,10.016355514526367,3.6807594299316406,0.2231307178735733
1772883634565861000,3.640861083984375,10.969895362854004,3.6053855419158936,0.13579268753528595
1772883634582488600,3.657488525390625,11.492727279663086,3.704089403152466,-0.11545369029045105
1772883634599080000,3.674079833984375,11.233105659484863,3.716651678085327,-0.2189432680606842
1772883634615687400,3.6906875,10.855039596557617,3.961916208267212,-0.30568310618400574
1772883634632294400,3.70729443359375,10.448858261108398,4.201198577880859,-0.2638086974620819
1772883634648903200,3.723903076171875,10.28614616394043,4.025325775146484,-0.015553346835076809
1772883634665489700,3.74048974609375,10.537392616271973,3.6634113788604736,0.05742774158716202
1772883634682110700,3.75711083984375,11.105688095092773,3.2715866565704346,0.17527425289154053
1772883634698718000,3.773718017578125,11.233704566955566,2.83669114112854,0.2386840581893921
1772883634715326200,3.790326171875,10.773683547973633,2.5465614795684814,0.0526420995593071
1772883634731921200,3.806921142578125,10.076774597167969,2.38265323638916,-0.14117653667926788
1772883634748537300,3.823537353515625,9.406784057617188,2.338385820388794,-0.3290131092071533
1772883634765123800,3.840123779296875,9.055039405822754,2.365903377532959,-0.6041877269744873
1772883634781748000,3.856748046875,8.780462265014648,2.3976082801818848,-0.8081758618354797
1772883634798340900,3.8733408203125,8.544769287109375,2.434697151184082,-0.9260223507881165
1772883634814921700,3.889921630859375,8.352147102355957,2.4568307399749756,-0.98703932762146
1772883634831528700,3.90652880859375,8.365307807922363,2.538186550140381,-0.9768698215484619
1772883634848150500,3.923150634765625,8.50169849395752,2.668595552444458,-0.9385846853256226
1772883634864750300,3.939750244140625,8.514261245727539,2.77866530418396,-0.9134600162506104
1772883634881362000,3.95636181640625,8.485547065734863,2.7828526496887207,-0.8608179688453674
1772883634897964000,3.972964111328125,8.389236450195312,2.861815929412842,-0.7447660565376282
1772883634914568700,3.989568603515625,8.422736167907715,2.923431158065796,-0.5724828243255615
1772883634931172600,4.006172607421875,8.732605934143066,2.7912275791168213,-0.4175475537776947
1772883634947797500,4.022797607421875,8.95095157623291,2.6638097763061523,-0.34277185797691345
1772883634964381700,4.039381591796875,9.123832702636719,2.6596224308013916,-0.20039889216423035
1772883634981002800,4.056002685546875,9.128618240356445,2.720639228820801,-0.01375873014330864
1772883634997601300,4.072601318359375,8.820542335510254,2.84087872505188,0.05144568532705307
1772883635014219500,4.089219482421875,8.50289535522461,2.9240293502807617,-0.003589233849197626
1772883635030814500,4.105814453125,8.593822479248047,2.9623143672943115,0.129810631275177
1772883635047426800,4.1224267578125,8.896514892578125,3.0113673210144043,0.4301098585128784
1772883635063995000,4.138994873046875,9.093324661254883,3.063411235809326,0.7160521745681763
1772883635080633300,4.15563330078125,9.06281566619873,3.022733211517334,0.9840483069419861
1772883635097263600,4.172263671875,8.995218276977539,3.0789644718170166,1.0755738019943237
1772883635113843200,4.18884326171875,8.733802795410156,3.2105698585510254,0.9726824164390564
1772883635130440200,4.205440185546875,8.495118141174316,3.3296127319335938,0.7214360237121582
1772883635147062000,4.22206201171875,8.26241683959961,3.466601848602295,0.6329016089439392
1772883635163660300,4.238660400390625,8.327022552490234,3.6293137073516846,0.7579265832901001
1772883635180263400,4.255263427734375,8.526823043823242,3.7872400283813477,1.0211371183395386
1772883635205171200,4.280171142578125,8.667402267456055,3.988237142562866,1.179661512374878
1772883635221774000,4.296774169921875,8.735597610473633,3.9224345684051514,1.1120643615722656
1772883635238384000,4.313384033203125,8.8648099899292,3.9427735805511475,1.1880364418029785
1772883635254986800,4.32998681640625,9.220742225646973,3.8781673908233643,1.3142578601837158
1772883635271592200,4.34659228515625,9.933204650878906,3.693321704864502,1.4476577043533325
1772883635288200000,4.363199951171875,10.573285102844238,3.5509488582611084,1.5960127115249634
1772883635304784600,4.37978466796875,10.801799774169922,3.625126361846924,1.571486234664917
1772883635321393700,4.3963935546875,10.41057300567627,3.7698919773101807,1.5128620862960815
1772883635337998000,4.412998046875,9.870991706848145,3.88594388961792,1.2245270013809204
1772883635354604000,4.42960400390625,9.457033157348633,4.143172264099121,0.875174880027771
1772883635371208200,4.446208251953125,9.238089561462402,4.284946918487549,0.753140926361084
1772883635387801000,4.462801025390625,9.279964447021484,4.113262176513672,0.794417142868042
1772883635404418600,4.47941845703125,9.496515274047852,3.8225340843200684,0.8823533654212952
1772883635421024000,4.49602392578125,9.817152976989746,3.3278181552886963,0.9529415965080261
1772883635437636000,4.512635986328125,10.25922679901123,2.7487549781799316,0.9798609018325806
1772883635454244000,4.529244140625,10.574481010437012,2.2546372413635254,0.9170492887496948
1772883635470852000,4.54585205078125,10.339386940002441,1.975873351097107,0.7489534616470337
1772883635487458800,4.562458740234375,9.644869804382324,1.9698911905288696,0.6191428303718567
1772883635504047000,4.579047119140625,8.770891189575195,2.11824631690979,0.5964110493659973
1772883635520668200,4.595668212890625,8.270193099975586,2.2809581756591797,0.5617151260375977
1772883635537256000,4.612255859375,8.477770805358887,2.459223508834839,0.6675975322723389
1772883635553878000,4.6288779296875,9.177671432495117,2.5118656158447266,0.9840483069419861
1772883635570483000,4.64548291015625,9.467203140258789,2.4885356426239014,1.3124631643295288
1772883635587088600,4.662088623046875,9.358329772949219,2.499901533126831,1.5571293830871582
1772883635603692800,4.67869287109375,9.080761909484863,2.572284460067749,1.6977076530456543
1772883635620294400,4.69529443359375,9.118449211120605,2.5776681900024414,1.683350682258606
1772883635636886500,4.711886474609375,9.290732383728027,2.579462766647339,1.6295121908187866
1772883635653509000,4.728509033203125,9.54197883605957,2.706282377243042,1.7156537771224976
1772883635670114000,4.745114013671875,9.622138023376465,2.792423963546753,1.7778671979904175
1772883635686719000,4.761718994140625,9.223732948303223,2.851048231124878,1.7228323221206665
1772883635703323400,4.778323486328125,8.620741844177246,3.019144058227539,1.459621787071228
1772883635719929900,4.794929931640625,8.113463401794434,3.150151014328003,1.1431710720062256
1772883635736516900,4.811516845703125,7.908278942108154,3.246462106704712,0.7770691514015198
1772883635753139500,4.828139404296875,7.848458290100098,3.2679975032806396,0.4091726839542389
1772883635769744100,4.844744140625,8.029714584350586,3.2093734741210938,0.16331014037132263
1772883635786349300,4.861349365234375,8.293522834777832,3.159722328186035,0.15672987699508667
1772883635802923500,4.877923583984375,8.512466430664062,3.2620155811309814,0.251844584941864
1772883635819546000,4.894546142578125,8.548956871032715,3.4002010822296143,0.372682124376297
1772883635836137000,4.911136962890625,8.518448829650879,3.5473594665527344,0.47916272282600403
1772883635852756500,4.927756591796875,8.48734188079834,3.6711881160736084,0.48514479398727417
1772883635869360400,4.9443603515625,8.46161937713623,3.7573297023773193,0.4905286431312561
1772883635885966000,4.960966064453125,8.466404914855957,3.747758388519287,0.4713860750198364
1772883635902571000,4.977571044921875,8.58066177368164,3.754936933517456,0.34636107087135315
1772883635919176200,4.99417626953125,8.6033935546875,3.7609190940856934,0.24107688665390015
1772883635935819000,5.010819091796875,8.612366676330566,3.7944185733795166,0.22193430364131927
1772883635952400400,5.027400390625,8.82233715057373,3.792623996734619,0.1537388563156128
1772883635969005000,5.044005126953125,9.09990406036377,3.7633118629455566,0.0323031060397625
1772883635985610000,5.06060986328125,9.248857498168945,3.6843485832214355,-0.11724831163883209
1772883636002215200,5.077215087890625,9.398408889770508,3.6047873497009277,-0.12801600992679596
1772883636018820000,5.093820068359375,9.711869239807129,3.5168511867523193,-0.039481572806835175
1772883636035428400,5.110428466796875,10.225728034973145,3.45882511138916,0.07657032459974289
1772883636052031000,5.127031005859375,10.579267501831055,3.6885361671447754,-0.038285162299871445
1772883636068611800,5.14361181640625,10.672587394714355,3.7908291816711426,-0.08614161610603333
1772883636085225200,5.16022509765625,10.537392616271973,3.8799619674682617,-0.04187439754605293
1772883636101830000,5.176829833984375,10.239486694335938,4.201796531677246,-0.03290131315588951
1772883636118452700,5.19345263671875,9.859027862548828,4.1623148918151855,0.2273181527853012
1772883636135056000,5.210055908203125,10.109077453613281,3.9194436073303223,0.41994038224220276
1772883636151660800,5.226660888671875,10.743773460388184,3.5096726417541504,0.4181457459926605
1772883636168248800,5.243248779296875,10.976475715637207,2.833101987838745,0.373878538608551
1772883636184873000,5.259873046875,10.948360443115234,2.2546372413635254,0.2835494875907898
1772883636201474000,5.27647412109375,10.926824569702148,1.7868403196334839,0.06999006122350693
1772883636218081300,5.293081298828125,11.0835542678833,1.4895321130752563,-0.23449662327766418
1772883636234685700,5.309685791015625,11.197213172912598,1.2580264806747437,-0.42831525206565857
1772883636251291100,5.326291015625,10.765907287597656,1.28255295753479,-0.44446679949760437
1772883636267894000,5.34289404296875,9.761520385742188,1.5296118259429932,-0.389431893825531
1772883636284473300,5.359473388671875,8.861818313598633,1.7730815410614014,-0.38703906536102295
1772883636301092600,5.376092529296875,8.397610664367676,1.989033818244934,-0.5072783827781677
1772883636317698300,5.3926982421875,8.414958953857422,2.09431791305542,-0.46839502453804016
1772883636334302500,5.409302490234375,8.549555778503418,2.1332013607025146,-0.32542386651039124
1772883636350908400,5.425908447265625,8.72064208984375,2.210968017578125,-0.2638086974620819
1772883636367512600,5.4425126953125,8.911469459533691,2.2366909980773926,-0.22193430364131927
1772883636384118300,5.4591181640625,9.106484413146973,2.3054845333099365,-0.20817556977272034
1772883636400722700,5.47572265625,9.3457670211792,2.3030917644500732,-0.1902294009923935
1772883636417328600,5.49232861328125,9.490532875061035,2.266601324081421,-0.1818545162677765
1772883636433950700,5.50895068359375,9.489934921264648,2.2857437133789062,-0.2147558331489563
1772883636450552300,5.52555224609375,9.257830619812012,2.4221346378326416,-0.21236300468444824
1772883636467156700,5.54215673828125,8.850452423095703,2.7140591144561768,-0.15553347766399384
1772883636483762200,5.55876220703125,8.411369323730469,2.9288148880004883,-0.06999006122350693
1772883636500367000,5.5753671875,8.212167739868164,3.1130621433258057,-0.03888336941599846
1772883636516968700,5.59196875,8.273782730102539,3.160320520401001,0.06640082597732544
1772883636533581300,5.608581298828125,8.409575462341309,3.094517946243286,0.10827522724866867
1772883636550182400,5.625182373046875,8.453842163085938,3.0424740314483643,0.1459621787071228
1772883636566787000,5.641787109375,8.37727165222168,3.060420274734497,0.1698904037475586
1772883636583376100,5.658376220703125,8.059624671936035,3.119642496109009,0.11964113265275955
1772883636599998000,5.674998046875,7.679764270782471,3.211168050765991,0.09870393574237823
1772883636616603000,5.691602783203125,7.57806921005249,3.277568817138672,0.07597211748361588
1772883636633197000,5.708197021484375,7.817351341247559,3.2889347076416016,0.1178465187549591
1772883636649813200,5.724813232421875,8.305487632751465,3.322434186935425,0.22971096634864807
1772883636666417400,5.74141748046875,8.72183895111084,3.3924243450164795,0.39541393518447876
1772883636683017700,5.758017822265625,8.940183639526367,3.504288673400879,0.47617170214653015
1772883636699627800,5.774627685546875,9.158528327941895,3.6442689895629883,0.6197410821914673
1772883636716233500,5.7912333984375,9.616155624389648,3.7818562984466553,0.737587571144104
1772883636732834800,5.807834716796875,10.171889305114746,3.800400495529175,0.9451649188995361
1772883636749447200,5.824447265625,10.839486122131348,3.7531423568725586,1.1994023323059082
1772883636766048000,5.841048095703125,11.384451866149902,3.6047873497009277,1.3722838163375854
1772883636782636500,5.857636474609375,11.344970703125,3.6568312644958496,1.3728820085525513
1772883636799244500,5.87424462890625,10.825727462768555,3.776472330093384,1.2951152324676514
1772883636815850000,5.89085009765625,10.339984893798828,3.881756544113159,1.236491084098816
1772883636832455000,5.907454833984375,9.851848602294922,4.064807415008545,1.0253244638442993
1772883636849060400,5.924060302734375,9.475577354431152,3.9840497970581055,1.0414760112762451
1772883636865664800,5.940664794921875,9.409774780273438,3.690330743789673,1.1491531133651733
1772883636882270200,5.957270263671875,9.615557670593262,3.232105255126953,1.2885349988937378
1772883636898875000,5.973875,9.91286563873291,2.7176482677459717,1.3926228284835815
1772883636915480800,5.990480712890625,10.199406623840332,2.228914260864258,1.2729816436767578
1772883636932102100,6.00710205078125,10.300503730773926,1.867598056793213,1.1024930477142334
1772883636948704000,6.0237041015625,10.097711563110352,1.6235301494598389,0.8530412912368774
1772883636965309000,6.040308837890625,9.704689979553223,1.5780665874481201,0.6346961855888367
1772883636981898200,6.056898193359375,9.235098838806152,1.6067804098129272,0.5802595019340515
1772883636998519600,6.07351953125,8.730213165283203,1.7724833488464355,0.7280163168907166
1772883637015124200,6.090124267578125,8.425128936767578,2.063809633255005,0.9421738982200623
1772883637031730000,6.10672998046875,8.446065902709961,2.286940336227417,1.197009563446045
1772883637048334600,6.12333447265625,8.544171333312988,2.496910333633423,1.4135600328445435
1772883637064939300,6.139939208984375,8.445467948913574,2.733201742172241,1.6115660667419434
1772883637081526300,6.1565263671875,8.199604988098145,2.89172625541687,1.8388842344284058
1772883637098148400,6.1731484375,8.0350980758667,3.0137600898742676,1.9316060543060303
1772883637114756400,6.18975634765625,8.083553314208984,2.985046148300171,1.9310078620910645
1772883637131360000,6.206360107421875,8.689535140991211,2.782254457473755,1.8400806188583374
1772883637147965000,6.22296484375,9.629914283752441,2.386242389678955,1.731805443763733
1772883637164569600,6.239569580078125,10.347163200378418,1.9818553924560547,1.2179467678070068
1772883637181173200,6.25617333984375,10.728219985961914,1.6271194219589233,0.6293123364448547
1772883637197780200,6.2727802734375,10.582856178283691,1.5248262882232666,0.07477571070194244
1772883637214385400,6.289385498046875,10.0612211227417,1.6510475873947144,-0.26081767678260803
1772883637230982000,6.30598193359375,9.545567512512207,1.846660852432251,-0.2757728099822998
1772883637247588600,6.322588623046875,9.059226989746094,2.0745773315429688,-0.12801600992679596
1772883637264183300,6.339183349609375,8.73918628692627,2.314457654953003,0.009571290574967861
1772883637280792000,6.3557919921875,8.363512992858887,2.5046870708465576,0.18065811693668365
1772883637297396700,6.372396728515625,7.991429328918457,2.7487549781799316,0.3038884699344635
1772883637314002200,6.389002197265625,7.8556365966796875,2.9036903381347656,0.49710890650749207
1772883637330606800,6.40560693359375,7.81555700302124,3.064607620239258,0.6514459848403931
1772883637347212300,6.42221240234375,7.773682594299316,3.297907829284668,0.7585247755050659
1772883637363817000,6.43881689453125,7.743772506713867,3.345165967941284,0.768694281578064
1772883637380433700,6.45543359375,7.789834022521973,3.4133615493774414,0.6927221417427063
1772883637397027300,6.47202734375,8.012965202331543,3.4504501819610596,0.5288137793540955
1772883637413632300,6.48863232421875,8.390432357788086,3.432504177093506,0.3403790295124054
1772883637430254800,6.5052548828125,8.762516975402832,3.4193434715270996,0.1178465187549591
1772883637446856200,6.521856201171875,9.154341697692871,3.4097721576690674,-0.008374879136681557
1772883637463460900,6.5384609375,9.56052303314209,3.37687087059021,-0.13519448041915894
1772883637480050000,6.5550498046875,10.05823040008545,3.359523057937622,-0.2386840581893921
1772883637496674300,6.57167431640625,10.65224838256836,3.322434186935425,-0.20937198400497437
1772883637513277000,6.58827685546875,11.262417793273926,3.2650065422058105,0.035892341285943985
1772883637529872400,6.604872314453125,11.719447135925293,3.43190598487854,0.10588239878416061
1772883637546478000,6.62147802734375,11.706286430358887,3.6604204177856445,0.23210379481315613
1772883637563100000,6.638099853515625,11.55553913116455,3.8159539699554443,0.30628129839897156
1772883637579697000,6.65469677734375,11.633305549621582,3.9661035537719727,0.20159530639648438
1772883637596298000,6.671298095703125,11.857034683227539,3.9792640209198,0.09511470049619675
1772883637612911000,6.6879111328125,12.393026351928711,3.524627685546875,0.18424734473228455
1772883637629512200,6.70451220703125,13.086346626281738,2.799602508544922,0.26620152592658997
1772883637646117000,6.7211171875,13.23709487915039,2.155334949493408,0.23629122972488403
1772883637662721800,6.7377216796875,12.78066349029541,1.673181176185608,0.04905286431312561
1772883637679310800,6.754310791015625,12.078370094299316,1.3459627628326416,-0.0687936544418335
1772883637695932400,6.770932373046875,11.37069320678711,1.2394821643829346,-0.22851456701755524
1772883637712537300,6.787537353515625,10.448260307312012,1.1395817995071411,-0.3529413342475891
1772883637729142500,6.804142578125,9.337990760803223,1.1186445951461792,-0.4713860750198364
1772883637745747500,6.82074755859375,8.138587951660156,1.2406785488128662,-0.5688936114311218
1772883637762335000,6.8373349609375,7.177271366119385,1.4554343223571777,-0.6382854580879211
1772883637778940700,6.853940673828125,6.659823417663574,1.695314884185791,-0.7627122402191162
1772883637795549000,6.870548828125,6.616154670715332,1.7653049230575562,-0.623330295085907
1772883637812154600,6.887154541015625,7.05763053894043,1.7922241687774658,-0.4007977843284607
1772883637828757000,6.903757080078125,7.599604606628418,1.74496591091156,-0.3565305769443512
1772883637845366500,6.920366455078125,8.006982803344727,1.6737794876098633,-0.4504488706588745
1772883637861968600,6.93696875,8.47298526763916,1.5738791227340698,-0.4821537733078003
1772883637878561500,6.9535615234375,8.8707914352417,1.506281852722168,-0.5042873620986938
1772883637895179500,6.970179443359375,9.327820777893066,1.4249259233474731,-0.4546363055706024
1772883637911801600,6.986801513671875,9.606584548950195,1.3932210206985474,-0.35114672780036926
1772883637928402700,7.003402587890625,9.647262573242188,1.532004714012146,-0.24047867953777313
1772883637944993800,7.019993896484375,9.488140106201172,1.7001005411148071,0.024526432156562805
1772883637961613000,7.036613037109375,9.163912773132324,1.9860427379608154,0.31106695532798767
1772883637978219300,7.05321923828125,8.74337387084961,2.2773690223693848,0.4588237404823303
1772883637994823700,7.06982373046875,8.467002868652344,2.530410051345825,0.7016952633857727
1772883638011428600,7.0864287109375,8.327621459960938,2.6608188152313232,0.9996016621589661
1772883638028033300,7.103033203125,8.259425163269043,2.8115665912628174,1.1832507848739624
1772883638044622300,7.119622314453125,8.34855842590332,2.912663459777832,1.2550355195999146
1772883638061243400,7.136243408203125,8.404191017150879,3.0281169414520264,1.2604193687438965
1772883638077851400,7.152851318359375,8.430512428283691,3.119642496109009,1.1892328262329102
1772883638094453500,7.16945361328125,8.436494827270508,3.2644083499908447,1.0325030088424683
1772883638111059000,7.186058837890625,8.279166221618652,3.4779677391052246,1.0348957777023315
1772883638127663600,7.20266357421875,8.217551231384277,3.720839262008667,1.1132607460021973
1772883638144254500,7.21925439453125,8.498109817504883,3.8709888458251953,1.2658032178878784
1772883638160874000,7.2358740234375,8.779864311218262,3.9212381839752197,1.3316057920455933
1772883638177463000,7.252463134765625,9.002396583557129,4.034298896789551,1.2975081205368042
1772883638194083800,7.269083740234375,9.139386177062988,4.126422882080078,1.3022937774658203
1772883638210689300,7.285689208984375,9.358329772949219,4.2006001472473145,1.3256237506866455
1772883638227294200,7.302294189453125,9.711270332336426,4.064209461212158,1.4997016191482544
1772883638243882500,7.318882568359375,9.987641334533691,3.899104595184326,1.5589239597320557
1772883638260490500,7.335490478515625,10.406984329223633,3.689732551574707,1.397408366203308
1772883638277096000,7.352095947265625,10.812567710876465,3.634697675704956,1.0504491329193115
1772883638293700600,7.36870068359375,10.950154304504395,3.59043025970459,0.8051848411560059
1772883638310306600,7.385306640625,10.897512435913086,3.5479576587677,0.6472585201263428
1772883638326910700,7.40191064453125,10.883753776550293,3.64127779006958,0.31824541091918945
1772883638343516200,7.41851611328125,10.730612754821777,3.5742788314819336,0.1178465187549591
1772883638360120800,7.435120849609375,10.61396312713623,3.4061830043792725,0.059820566326379776
1772883638376715500,7.451715576171875,10.758728981018066,3.1435706615448,0.18125630915164948
1772883638393331000,7.4683310546875,10.96869945526123,2.7696921825408936,0.4977070987224579
1772883638409954000,7.4849541015625,11.133803367614746,2.4634108543395996,0.7148557901382446
1772883638426554600,7.5015546875,11.058429718017578,2.1990039348602295,0.8231309652328491
1772883638443144000,7.51814404296875,10.557731628417969,2.0315065383911133,0.6861419081687927
1772883638459764700,7.5347646484375,10.067801475524902,2.038684844970703,0.38763725757598877
1772883638476372200,7.551372314453125,9.756135940551758,2.0644078254699707,0.31764721870422363
1772883638492975600,7.5679755859375,9.69212818145752,2.1822543144226074,0.39541393518447876
1772883638509580500,7.58458056640625,10.05823040008545,2.310270309448242,0.4612165689468384
1772883638526185200,7.601185302734375,10.474580764770508,2.3712873458862305,0.5934200286865234
1772883638542809600,7.6178095703125,10.316056251525879,2.4771697521209717,0.8865407705307007
1772883638559395300,7.634395263671875,9.539586067199707,2.672184705734253,1.1653046607971191
1772883638575993000,7.6509931640625,8.83250617980957,2.94975209236145,1.420140266418457
1772883638592606000,7.66760595703125,8.152944564819336,3.0317063331604004,1.6396816968917847
1772883638609211000,7.6842109375,7.735995769500732,3.074777126312256,1.6803597211837769
1772883638625799200,7.700799072265625,7.735995769500732,3.0418758392333984,1.5702898502349854
1772883638642422800,7.7174228515625,8.150551795959473,2.8833513259887695,1.6432709693908691
1772883638659025700,7.734025634765625,8.380263328552246,2.6841487884521484,1.7407784461975098
1772883638675603000,7.75060302734375,8.198408126831055,2.620738983154297,1.6217355728149414
1772883638692236300,7.767236328125,7.668398380279541,2.7038896083831787,1.2574282884597778
1772883638708841500,7.783841552734375,7.118647575378418,2.9479575157165527,0.5688936114311218
1772883638725446000,7.80044580078125,6.6143598556518555,3.0999016761779785,0.037088751792907715
1772883638742034400,7.817034423828125,6.335596084594727,3.315255880355835,-0.33798620104789734
1772883638758642400,7.833642333984375,6.51326322555542,3.466601848602295,-0.47617170214653015
1772883638775241200,7.8502412109375,6.927819728851318,3.5988051891326904,-0.33918261528015137
1772883638791852800,7.866852783203125,7.29810905456543,3.826721668243408,-0.17228323221206665
1772883638808458500,7.88345849609375,7.80837869644165,4.001996040344238,0.10827522724866867
1772883638825062700,7.900062744140625,8.105088233947754,4.1036906242370605,0.3517449200153351
1772883638841668000,7.916668212890625,8.091927528381348,4.238885402679443,0.2476571500301361
1772883638858270500,7.9332705078125,7.936394691467285,4.296313285827637,0.03349951654672623
1772883638874862800,7.94986279296875,7.950153350830078,4.287938117980957,-0.11485548317432404
1772883638891482400,7.966482421875,8.23250675201416,4.253242015838623,-0.18843477964401245
1772883638908106000,7.98310595703125,8.793025016784668,4.193421840667725,-0.3116651475429535
1772883638924706800,7.999706787109375,9.282955169677734,4.064807415008545,-0.33918261528015137
1772883638941295400,8.01629541015625,9.415757179260254,4.067798614501953,-0.5216353535652161
1772883638957922800,8.0329228515625,9.367302894592285,4.067798614501953,-0.6269195079803467
1772883638974501000,8.049501220703124,9.374481201171875,4.155136585235596,-0.7268198728561401
1772883638991127600,8.06612744140625,9.366703987121582,4.29451847076416,-0.7974081635475159
1772883639007732500,8.082732421875,9.348159790039062,4.5236310958862305,-0.7621139883995056
1772883639024337000,8.0993369140625,9.42473030090332,4.609174728393555,-0.5754738450050354
1772883639040928000,8.115927978515625,9.621540069580078,4.633700847625732,-0.37028929591178894
1772883639057541600,8.132541748046876,9.827920913696289,4.639683246612549,-0.29012975096702576
1772883639074124800,8.149124755859376,9.847661972045898,4.826921463012695,-0.3080759048461914
1772883639090757400,8.16575732421875,9.854840278625488,5.007579803466797,-0.1537388563156128
1772883639107362800,8.18236279296875,10.040284156799316,5.160720348358154,0.0568295381963253
1772883639123967200,8.19896728515625,10.13898754119873,5.294718265533447,0.17647066712379456
1772883639140556800,8.215556884765626,10.218548774719238,5.216951370239258,0.42412781715393066
1772883639157163000,8.2321630859375,10.572687149047852,4.990829944610596,0.5066801905632019
1772883639173766400,8.248766357421875,10.704890251159668,4.847858905792236,0.6005984544754028
1772883639190388000,8.265387939453126,10.652846336364746,4.400400638580322,0.8321040868759155
1772883639206993200,8.2819931640625,10.889137268066406,3.7770705223083496,0.7160521745681763
1772883639223580700,8.29858056640625,11.400603294372559,2.998805046081543,0.5784648656845093
1772883639240189700,8.315189697265625,11.590234756469727,2.4813570976257324,0.2913261651992798
1772883639256794000,8.331794189453126,11.198410034179688,2.379063844680786,0.04905286431312561
1772883639273384200,8.34838427734375,10.430912017822266,2.2360928058624268,0.09511470049619675
1772883639290008000,8.365008056640624,9.838688850402832,2.3742783069610596,0.003589233849197626
1772883639306610000,8.38160986328125,9.221938133239746,2.3156540393829346,-0.09810572862625122
1772883639323214300,8.39821435546875,8.726624488830566,2.430509567260742,-0.16151553392410278
1772883639339820000,8.414820068359376,8.142775535583496,2.771486759185791,0.07357929646968842
1772883639356411600,8.43141162109375,7.931010723114014,3.201596736907959,0.42711883783340454
1772883639373017000,8.44801708984375,8.157731056213379,3.4743785858154297,0.719641387462616
1772883639389638100,8.46463818359375,8.233104705810547,3.5234313011169434,0.7244270443916321
1772883639406253800,8.48125390625,7.885547161102295,3.6119658946990967,0.5353940725326538
1772883639422854400,8.4978544921875,7.529016494750977,3.7052857875823975,0.37088751792907715
1772883639439468800,8.51446875,7.691728591918945,3.683152198791504,0.3170489966869354
1772883639456071400,8.531071533203125,8.096115112304688,3.5258240699768066,0.2470589429140091
1772883639472651000,8.547651123046874,8.248658180236816,3.513859987258911,0.15972091257572174
1772883639489279200,8.564279296875,8.140382766723633,3.6987056732177734,0.17647066712379456
1772883639505884200,8.58088427734375,7.877171993255615,3.9355950355529785,0.1746760457754135
1772883639522488800,8.59748876953125,7.717451095581055,4.071985721588135,0.267397940158844
1772883639539081500,8.61408154296875,7.765307903289795,4.062414646148682,0.28654050827026367
1772883639555682600,8.6306826171875,7.683353424072266,4.104887008666992,0.2679961323738098
1772883639572290800,8.647290771484375,7.537989616394043,4.2454657554626465,0.4420739710330963
1772883639588909800,8.663909912109375,7.5912299156188965,4.2454657554626465,0.5132604837417603
1772883639605514500,8.680514404296876,7.7491559982299805,4.204787731170654,0.4019941985607147
1772883639622119200,8.697119140625,7.800601959228516,4.221537113189697,0.2105683982372284
1772883639638721000,8.713720947265625,7.855038642883301,4.332205295562744,0.1537388563156128
1772883639655329300,8.730329345703124,7.781459331512451,4.493122577667236,0.2847459018230438
1772883639671921200,8.746921142578126,7.8424763679504395,4.575077056884766,0.32303106784820557
1772883639688539400,8.763539306640626,7.810173034667969,4.7371907234191895,0.30987054109573364
1772883639705144800,8.780144775390625,7.6600236892700195,4.878366947174072,0.40737804770469666
1772883639721729500,8.7967294921875,7.709076404571533,5.1080780029296875,0.5335994362831116
1772883639738344400,8.813344482421876,8.044071197509766,5.186442852020264,0.7567301392555237
1772883639754946000,8.829946044921876,8.37428092956543,5.179862976074219,0.7836494445800781
1772883639771551700,8.8465517578125,8.637491226196289,5.159523963928223,0.7387840151786804
1772883639788156700,8.86315673828125,8.605188369750977,5.176273345947266,0.9308080077171326
1772883639804761600,8.87976171875,9.132805824279785,5.227120876312256,1.277169108390808
1772883639821363000,8.896363037109374,10.083952903747559,5.289932727813721,1.2819547653198242
1772883639837971700,8.9129716796875,10.749755859375,5.2869415283203125,1.3639088869094849
1772883639854572300,8.929572265625,10.947761535644531,5.43290376663208,1.368694543838501
1772883639871178800,8.9461787109375,10.581660270690918,5.553741455078125,1.2903295755386353
1772883639887803600,8.9628037109375,9.994221687316895,5.438287734985352,1.1826525926589966
1772883639904405500,8.979405517578124,9.605986595153809,5.19960355758667,1.1545369625091553
1772883639921010200,8.99601025390625,9.198010444641113,4.769493579864502,1.1443674564361572
1772883639937599500,9.012599609375,9.309874534606934,4.172484397888184,1.1581261157989502
1772883639954220300,9.02922021484375,9.633503913879395,3.4965121746063232,1.1515458822250366
1772883639970826800,9.04582666015625,9.723833084106445,3.0101709365844727,1.0803594589233398
1772883639987431200,9.06243115234375,9.623334884643555,2.662015199661255,0.8201399445533752
1772883640004035800,9.079035888671875,9.491728782653809,2.480160713195801,0.6089733839035034
1772883640020640800,9.095640869140626,9.463613510131836,2.779263496398926,0.8841479420661926
1772883640037229800,9.112229736328125,9.638289451599121,2.998805046081543,1.1431710720062256
1772883640053853200,9.128853271484376,9.543174743652344,3.232105255126953,1.1934202909469604
1772883640070451700,9.14545166015625,8.815756797790527,3.497110366821289,1.170688509941101
1772883640087077400,9.162077392578125,8.24267578125,3.7292141914367676,1.3046865463256836
1772883640103666200,9.178666259765626,8.170292854309082,3.812962770462036,1.482353687286377
1772883640120271000,9.19527099609375,8.106285095214844,4.001397609710693,1.7473586797714233
1772883640136876500,9.21187646484375,8.072785377502441,4.147958278656006,1.3950155973434448
1772883640153477600,9.2284775390625,8.617152214050293,3.680161237716675,1.3357932567596436
1772883640170092800,9.2450927734375,9.208778381347656,3.4396824836730957,1.1389836072921753
1772883640186690000,9.26168994140625,9.721440315246582,3.0969107151031494,0.9804590940475464
