time,seconds_elapsed,z,y,x
1772884859937679400,0.199679443359375,7.424330234527588,5.3593244552612305,-0.3852444589138031
1772884859954280400,0.216280517578125,7.447660446166992,5.209773063659668,-0.1902294009923935
1772884859970899500,0.2328994140625,8.452646255493164,5.350949764251709,0.24526432156562805
1772884859987500800,0.249500732421875,9.451051712036133,5.160720348358154,0.8500502705574036
1772884860004127500,0.26612744140625,9.68375301361084,5.216951370239258,0.7393822073936462
1772884860020712200,0.282712158203125,8.971290588378906,5.2043890953063965,0.11186445504426956
1772884860037339100,0.299339111328125,8.456833839416504,5.1840500831604,-0.3924229145050049
1772884860053949000,0.315948974609375,8.39282512664795,5.283352375030518,-0.31465616822242737
1772884860070546200,0.332546142578125,8.796614646911621,5.416752338409424,0.3008974492549896
1772884860087153700,0.349153564453125,9.153742790222168,5.322834014892578,0.4989035129547119
1772884860103767300,0.365767333984375,9.05862808227539,5.209175109863281,0.2356930375099182
1772884860120372700,0.382372802734375,8.775078773498535,5.179264545440674,0.0029910283628851175
1772884860136980000,0.39897998046875,8.540582656860352,5.167898654937744,-0.029312077909708023
1772884860153584400,0.41558447265625,8.464012145996094,5.227719306945801,0.1579262912273407
1772884860170194200,0.432194091796875,8.489734649658203,5.240281581878662,0.3924229145050049
1772884860186801400,0.448801513671875,8.307880401611328,5.210371494293213,0.3068794906139374
1772884860203402000,0.465402099609375,8.25523853302002,5.237888813018799,0.3840480446815491
1772884860220011300,0.48201123046875,8.21695327758789,5.227719306945801,0.3936193287372589
1772884860236623400,0.498623291015625,8.298309326171875,5.26600456237793,0.4989035129547119
1772884860253224400,0.515224365234375,8.361120223999023,5.200201988220215,0.4546363055706024
1772884860269834800,0.531834716796875,8.510671615600586,5.111667156219482,0.30987054109573364
1772884860286440700,0.548440673828125,8.356334686279297,5.111069202423096,0.1908276081085205
1772884860303046400,0.56504638671875,8.14815902709961,5.2384867668151855,0.1501496136188507
1772884860319656000,0.581656005859375,8.10807991027832,5.365904808044434,0.2949153780937195
1772884860336264400,0.598264404296875,8.525627136230469,5.406582832336426,0.5557330846786499
1772884860352868000,0.6148681640625,8.97368335723877,5.220541000366211,0.4899304509162903
1772884860369475800,0.631475830078125,9.199206352233887,5.109872817993164,0.2727817893028259
1772884860386067500,0.6480673828125,9.379864692687988,5.136792182922363,0.15194423496723175
1772884860402675500,0.664675537109375,9.017352104187012,5.070989608764648,0.1010967567563057
1772884860419269400,0.681269287109375,8.068597793579102,5.071587562561035,-0.02273181453347206
1772884860435891500,0.697891357421875,6.961917400360107,5.178068161010742,0.09451649338006973
1772884860452496600,0.71449658203125,6.162116527557373,5.287539958953857,0.3002992272377014
1772884860469106000,0.73110595703125,5.603392601013184,5.0638108253479,0.5694918036460876
1772884860485710600,0.747710693359375,5.312066078186035,4.72163724899292,1.1288141012191772
1772884860502317300,0.7643173828125,4.992026329040527,4.299304008483887,1.4189438819885254
1772884860518942700,0.780942626953125,4.427918434143066,3.5084762573242188,1.4213366508483887
1772884860535544600,0.797544677734375,4.001996040344238,2.691925525665283,1.207179069519043
1772884860552151000,0.814151123046875,3.6747772693634033,1.7365909814834595,1.1108678579330444
1772884860568762400,0.830762451171875,3.4366915225982666,0.9248259663581848,1.1874382495880127
1772884860585365500,0.847365478515625,3.3206396102905273,0.3565305769443512,1.4901303052902222
1772884860601974300,0.863974365234375,3.692723512649536,0.01375873014330864,1.8011972904205322
1772884860618580700,0.880580810546875,4.1383867263793945,-0.44327038526535034,2.039283037185669
1772884860635185700,0.897185546875,5.064409255981445,-0.6993024349212646,2.4293131828308105
1772884860651795000,0.913794921875,5.84446907043457,-0.6867401003837585,2.5058834552764893
1772884860668401400,0.9304013671875,6.475576400756836,-0.27038896083831787,2.190030813217163
1772884860685008600,0.947008544921875,9.005986213684082,0.7339983582496643,2.6901309490203857
1772884860701589500,0.963589599609375,12.1866455078125,2.0027925968170166,3.269792079925537
1772884860718224100,0.98022412109375,12.833306312561035,2.5698914527893066,2.0650060176849365
1772884860734827300,0.9968271484375,9.166903495788574,3.4002010822296143,-0.13220344483852386
1772884860751419400,1.01341943359375,6.0125651359558105,5.045864582061768,-1.3746765851974487
1772884860768051200,1.03005126953125,4.54337215423584,6.467201232910156,-0.9780662655830383
1772884860784648700,1.046648681640625,5.651846885681152,7.88913631439209,-0.7824530005455017
1772884860801259000,1.063259033203125,8.236095428466797,8.59322452545166,-0.906281590461731
1772884860817863000,1.07986279296875,9.937392234802246,8.798408508300781,-2.1104695796966553
1772884860834468900,1.09646875,12.88774299621582,7.817351341247559,-2.3443679809570312
1772884860851077400,1.113077392578125,16.35673713684082,7.201199531555176,-1.9716858863830566
1772884860867683300,1.129683349609375,19.807188034057617,7.034300327301025,-1.5906288623809814
1772884860884268300,1.146268310546875,23.316261291503906,7.7114691734313965,-0.1417747437953949
1772884860900891000,1.162890869140625,27.833911895751953,9.46899700164795,2.7966115474700928
1772884860917473500,1.1794736328125,31.624141693115234,8.396414756774902,4.938786029815674
1772884860934094600,1.196094482421875,34.071998596191406,7.334599494934082,5.213362216949463
1772884860950708700,1.212708740234375,32.411380767822266,7.134799003601074,4.613960266113281
1772884860967315000,1.22931494140625,24.944578170776367,7.491329669952393,0.8566305041313171
1772884860983918600,1.245918701171875,16.16710662841797,7.661220073699951,-1.1012966632843018
1772884861000526300,1.2625263671875,15.422938346862793,6.103492259979248,-0.047258246690034866
1772884861017145300,1.279145263671875,23.284557342529297,4.47278356552124,3.2207393646240234
1772884861033729300,1.295729248046875,20.80080795288086,4.524827480316162,4.081557273864746
1772884861050361000,1.312361083984375,9.835697174072266,4.652843475341797,2.633301258087158
1772884861066972700,1.32897265625,1.5296118259429932,5.14157772064209,-0.27696922421455383
1772884861083572700,1.34557275390625,-2.2259232997894287,4.097708702087402,-1.669592022895813
1772884861100183600,1.36218359375,0.003589233849197626,2.840280532836914,-1.7252250909805298
1772884861116786200,1.3787861328125,6.3122663497924805,1.1377872228622437,-3.48993182182312
1772884861133393200,1.39539306640625,10.65224838256836,-0.20877377688884735,-5.150550842285156
1772884861150001400,1.41200146484375,7.736593723297119,0.31046873331069946,-4.604389190673828
1772884861166608000,1.42860791015625,2.090130567550659,0.6149554252624512,-3.0544381141662598
1772884861183214300,1.44521435546875,-2.3605196475982666,0.3930211067199707,-2.279761791229248
1772884861199824100,1.46182421875,-3.445664644241333,-0.4737788736820221,-3.1076784133911133
1772884861216414200,1.478414306640625,-1.4799607992172241,-1.4075778722763062,-4.493122577667236
1772884861233035000,1.495034912109375,0.7698906660079956,-1.965105652809143,-5.309075355529785
1772884861249644800,1.511644775390625,2.032702922821045,-1.5541383028030396,-4.146163463592529
1772884861266254600,1.528254638671875,1.6666009426116943,-0.27756741642951965,-1.5900306701660156
1772884861282856400,1.5448564453125,0.0023928226437419653,0.8045865893363953,0.268594354391098
1772884861309844200,1.57184423828125,-1.5469598770141602,1.97407865524292,0.8793623447418213
1772884861326418700,1.588418701171875,-1.3256237506866455,1.9465612173080444,0.0005982056609354913
1772884861343047400,1.60504736328125,-0.7339983582496643,1.7599210739135742,-1.3746765851974487
1772884861359634200,1.62163427734375,-0.48813581466674805,1.293320655822754,-2.3330020904541016
1772884861376259300,1.63825927734375,-0.6951149702072144,0.8003991842269897,-2.4681966304779053
1772884861392866800,1.65486669921875,-0.6699903607368469,0.15613168478012085,-1.9680966138839722
1772884861409474300,1.671474365234375,-0.4833501875400543,-0.397208571434021,-1.800000786781311
1772884861426080300,1.688080322265625,-0.8697910308837891,-1.054038405418396,-1.1922239065170288
1772884861442686000,1.70468603515625,-1.3621143102645874,-0.9619147181510925,0.6239284873008728
1772884861459289000,1.7212890625,-1.017547845840454,-0.40378883481025696,3.1627132892608643
1772884861475902200,1.737902099609375,-0.019142581149935722,0.23389841616153717,4.932804107666016
1772884861492506600,1.754506591796875,2.7044878005981445,0.19680966436862946,5.405386447906494
1772884861509129700,1.771129638671875,7.0169525146484375,0.16151553392410278,6.729215621948242
1772884861525700000,1.7877001953125,14.580066680908203,0.3696911036968231,7.385447025299072
1772884861542343000,1.804343017578125,21.202800750732422,1.1629117727279663,5.387440204620361
1772884861558939000,1.82093896484375,20.57468605041504,3.848257064819336,-0.38763725757598877
1772884861575554600,1.837554443359375,14.59502124786377,9.585647583007812,-2.548356056213379
1772884861592161500,1.85416162109375,9.172286987304688,19.259231567382812,-1.8460626602172852
1772884861608771000,1.87077099609375,12.342777252197266,22.162322998046875,3.6197423934936523
1772884861625372400,1.887372314453125,26.40479850769043,16.507484436035156,11.018948554992676
1772884861641982000,1.90398193359375,45.30510711669922,8.065607070922852,16.916658401489258
1772884861658561800,1.920561767578125,44.076988220214844,5.065605640411377,13.12104320526123
1772884861675190500,1.9371904296875,27.27159881591797,6.7902326583862305,6.0161542892456055
1772884861691791600,1.95379150390625,16.5397891998291,9.17467975616455,1.8801604509353638
1772884861708397800,1.970397705078125,17.80499267578125,6.412166595458984,-1.4620146751403809
1772884861725005000,1.987005126953125,26.3389949798584,-0.914058268070221,-3.3332018852233887
1772884861741607000,2.00360693359375,27.259035110473633,-3.111865758895874,-1.602592945098877
1772884861758210800,2.0202109375,22.797616958618164,-0.9619147181510925,2.9072794914245605
1772884861774838300,2.03683837890625,19.34716796875,-1.0211371183395386,8.446065902709961
1772884861791444200,2.0534443359375,14.248661041259766,0.6382854580879211,7.167101860046387
1772884861808054800,2.0700546875,9.528818130493164,1.9698911905288696,3.2039895057678223
1772884861824654600,2.086654541015625,5.60399055480957,3.177668571472168,-0.5784648656845093
1772884861841264600,2.1032646484375,2.991028308868408,2.846860647201538,-1.5290136337280273
1772884861857853200,2.119853271484375,2.231307029724121,2.5112674236297607,-2.059622049331665
1772884861874467000,2.136467041015625,0.9068797826766968,2.32761812210083,-2.039283037185669
1772884861891073800,2.15307373046875,-0.01615155301988125,2.950948476791382,-0.3032902777194977
1772884861907680800,2.1696806640625,-0.36191442608833313,3.2350962162017822,0.24167509377002716
1772884861924288300,2.186288330078125,-0.029312077909708023,2.480160713195801,-0.7896314859390259
1772884861940894700,2.202894775390625,0.5880361795425415,1.8753747940063477,-2.290529489517212
1772884861957481500,2.2194814453125,1.4374881982803345,1.674975872039795,-3.008974552154541
1772884861974109200,2.236109130859375,1.8041882514953613,1.454836130142212,-3.0382864475250244
1772884861990715000,2.25271484375,1.667797327041626,1.3674981594085693,-2.383849620819092
1772884862007338800,2.2693388671875,0.7465606927871704,1.430907964706421,-2.000998020172119
1772884862023928300,2.28592822265625,-0.890728235244751,1.2897313833236694,-2.142772674560547
1772884862040548000,2.302548095703125,-1.633699655532837,1.0277173519134521,-1.893320918083191
1772884862057143000,2.31914306640625,-0.771087110042572,0.6065805554389954,-0.5599204897880554
1772884862073763300,2.335763427734375,0.4019941985607147,-0.8063812255859375,0.5952146053314209
1772884862090380000,2.352380126953125,0.6544370055198669,-1.731805443763733,1.0761719942092896
1772884862106979000,2.36897900390625,-0.12143574655056,-1.970489501953125,1.2502498626708984
1772884862123594500,2.385594482421875,-0.6442674994468689,-2.121237277984619,1.3764712810516357
1772884862140223200,2.40222314453125,-1.052243709564209,-1.6342978477478027,2.0620148181915283
1772884862156799000,2.418799072265625,-1.9304096698760986,-0.7459624409675598,2.815753936767578
1772884862173404000,2.43540380859375,-2.3084757328033447,-0.48454657196998596,2.1774685382843018
1772884862189996000,2.45199609375,-1.5798611640930176,0.12263216078281403,0.8279166221618652
1772884862206620700,2.46862060546875,0.641276478767395,0.5156532526016235,-0.4570291340351105
1772884862223230700,2.485230712890625,4.774279594421387,0.8566305041313171,-0.9409775137901306
1772884862239833000,2.5018330078125,9.375677108764648,0.8309076428413391,-1.5296118259429932
1772884862256427300,2.51842724609375,14.31625747680664,1.7736797332763672,-2.3856441974639893
1772884862273035500,2.535035400390625,17.057235717773438,5.19960355758667,-3.5718860626220703
1772884862289640200,2.55164013671875,14.281561851501465,11.97009563446045,-3.7776687145233154
1772884862306246000,2.568245849609375,8.978468894958496,18.381065368652344,-3.5336008071899414
1772884862322855400,2.58485546875,11.167303085327148,20.842681884765625,-2.465803623199463
1772884862339464200,2.601464111328125,33.309288024902344,7.465606689453125,-0.924227774143219
1772884862356054500,2.618054443359375,59.079986572265625,-3.9182469844818115,2.268994092941284
1772884862372673000,2.634673095703125,57.650875091552734,-1.495514154434204,7.369295597076416
1772884862389282000,2.651281982421875,30.01915740966797,7.493124008178711,8.403593063354492
1772884862405877200,2.667877197265625,10.296914100646973,12.268001556396484,7.310073375701904
1772884862422494700,2.68449462890625,5.298307418823242,12.63888931274414,6.894918441772461
1772884862439103000,2.70110302734375,14.91147232055664,8.38863754272461,9.000602722167969
1772884862455700500,2.717700439453125,22.998615264892578,4.286741733551025,9.546764373779297
1772884862472316400,2.73431640625,22.894527435302734,2.321636199951172,7.214958667755127
1772884862488925400,2.750925537109375,17.422142028808594,2.0398812294006348,4.06839656829834
1772884862505532400,2.767532470703125,10.697113990783691,3.2099716663360596,1.9938194751739502
1772884862522137900,2.784137939453125,4.986044406890869,4.524827480316162,1.0857433080673218
1772884862538757600,2.800757568359375,0.33738797903060913,5.405984401702881,-0.25782662630081177
1772884862555364900,2.81736474609375,-1.1126625537872314,5.475376605987549,-1.7563318014144897
1772884862571984600,2.833984619140625,-0.16689938306808472,4.522434711456299,-3.1561331748962402
1772884862588593200,2.85059326171875,1.3710874319076538,3.472583770751953,-4.387838363647461
1772884862605188000,2.86718798828125,2.1068804264068604,2.400599241256714,-5.240281581878662
1772884862621769200,2.883769287109375,1.6839489936828613,1.4177473783493042,-5.771488189697266
1772884862638397000,2.90039697265625,0.7782655358314514,0.7782655358314514,-6.0640106201171875
1772884862655007000,2.917007080078125,0.6777670383453369,0.18305093050003052,-5.1343994140625
1772884862671612400,2.9336123046875,0.8207381963729858,-0.14656038582324982,-3.336193084716797
1772884862688209700,2.950209716796875,0.625723123550415,-0.17168502509593964,-1.2029916048049927
1772884862704825900,2.966825927734375,0.0933200865983963,0.10767702013254166,0.6149554252624512
1772884862721456600,2.98345654296875,-0.33858439326286316,0.6699903607368469,2.324028968811035
1772884862738043000,3.00004296875,-1.0295119285583496,1.2646067142486572,3.2476584911346436
1772884862754631400,3.01663134765625,-1.3070793151855469,1.6013965606689453,3.2919256687164307
1772884862771262000,3.033261962890625,-1.2029916048049927,1.5667005777359009,2.664407968521118
1772884862787877000,3.049877197265625,-0.31046873331069946,1.0474581718444824,2.0165512561798096
1772884862804466000,3.0664658203125,1.0319048166275024,1.0277173519134521,2.210968017578125
1772884862852203300,3.114203369140625,0.5670989751815796,1.7964116334915161,3.204587697982788
1772884862868811000,3.13081103515625,3.3966116905212402,2.6039891242980957,3.601198196411133
1772884862885399600,3.147399658203125,10.416555404663086,2.8624141216278076,2.8654050827026367
1772884862902021400,3.164021484375,17.90190315246582,3.7908291816711426,-0.11665010452270508
1772884862918627000,3.180626953125,22.00559425354004,6.314060688018799,-4.2006001472473145
1772884862935234300,3.197234375,20.152950286865234,10.41476058959961,-4.886742115020752
1772884862951838000,3.213837890625,18.644275665283203,12.830314636230469,-3.1962127685546875
1772884862968450800,3.230450927734375,22.293331146240234,12.19382381439209,-0.15553347766399384
1772884862985051000,3.24705078125,34.02952575683594,7.905886173248291,2.5489542484283447
1772884863001680400,3.263680419921875,38.71706771850586,3.7292141914367676,3.3720853328704834
1772884863018282000,3.280281982421875,32.182865142822266,3.332005500793457,1.7653049230575562
1772884863034872300,3.296872314453125,22.417158126831055,4.65224552154541,0.6251249313354492
1772884863051492400,3.313492431640625,15.467206001281738,4.609772682189941,0.15194423496723175
1772884863068107300,3.330107177734375,12.553943634033203,3.9427735805511475,-2.337787628173828
1772884863084699600,3.34669970703125,12.451650619506836,2.4987051486968994,-6.154938220977783
1772884863101317000,3.363317138671875,12.026326179504395,1.9076778888702393,-4.052245140075684
1772884863117924000,3.379924072265625,11.239686012268066,2.2133610248565674,0.27337998151779175
1772884863134544600,3.396544677734375,9.479764938354492,3.1890344619750977,3.2650065422058105
1772884863151134500,3.413134521484375,7.070790767669678,3.0789644718170166,1.8239290714263916
1772884863167747800,3.429747802734375,4.5445685386657715,2.626721143722534,-2.3784656524658203
1772884863184351200,3.446351318359375,2.9802606105804443,2.1481566429138184,-4.459024906158447
1772884863200959200,3.462959228515625,2.527418851852417,1.8221344947814941,-4.396213531494141
1772884863217565400,3.4795654296875,1.7617156505584717,1.5858432054519653,-2.877967357635498
1772884863234172200,3.496172119140625,0.5665007829666138,2.018944025039673,-0.6580262184143066
1772884863250775600,3.512775634765625,-0.4576273262500763,2.7810580730438232,0.7830511927604675
1772884863267390200,3.52939013671875,-1.2245270013809204,3.098705291748047,0.7280163168907166
1772884863283992800,3.545992919921875,-1.1270195245742798,3.0891339778900146,0.2871387302875519
1772884863300600300,3.562600341796875,-0.6580262184143066,2.851048231124878,-0.4492524564266205
1772884863317203200,3.579203125,0.7501499056816101,2.296511650085449,-0.3798605799674988
1772884863333818000,3.595818115234375,3.741178274154663,2.4735803604125977,-0.5246263742446899
1772884863350403800,3.61240380859375,3.7776687145233154,1.9471594095230103,-1.628315806388855
1772884863367012400,3.629012451171875,2.424527645111084,2.1439690589904785,-2.355733871459961
1772884863383619000,3.645619140625,1.4315061569213867,2.544766902923584,-2.3330020904541016
1772884863400228000,3.66222802734375,0.9260223507881165,2.9078776836395264,-2.3994028568267822
1772884863416834600,3.67883447265625,1.0612168312072754,3.3068809509277344,-1.7994025945663452
1772884863433441800,3.69544189453125,4.414159774780273,4.027718544006348,-0.6843472719192505
1772884863450051000,3.712051025390625,7.121638298034668,4.854438781738281,0.1052841991186142
1772884863466653400,3.7286533203125,8.964710235595703,6.615556240081787,0.20817556977272034
1772884863483253000,3.7452529296875,13.828720092773438,8.10269546508789,-0.22432711720466614
1772884863499883500,3.761883544921875,19.088743209838867,8.937192916870117,-0.5635097622871399
1772884863516490000,3.778489990234375,21.035303115844727,11.111071586608887,1.8759729862213135
1772884863533097700,3.79509765625,17.52742576599121,13.896915435791016,1.8161523342132568
1772884863549684700,3.811684814453125,12.349955558776855,15.627524375915527,-1.9250258207321167
1772884863566314800,3.828314697265625,10.485946655273438,15.137594223022461,-5.294718265533447
1772884863582913500,3.84491357421875,9.994820594787598,14.066805839538574,-6.6915283203125
1772884863599524900,3.86152490234375,13.00259780883789,12.815958023071289,-5.450251579284668
1772884863616129300,3.87812939453125,19.660627365112305,8.392227172851562,-1.0534402132034302
1772884863632740600,3.89474072265625,18.836299896240234,6.498906135559082,3.524029493331909
1772884863649336000,3.911336181640625,15.869199752807617,6.279364585876465,6.5521464347839355
1772884863665956600,3.92795654296875,13.514662742614746,4.800600528717041,5.851049423217773
1772884863682551800,3.9445517578125,11.474183082580566,3.3003005981445312,3.422334671020508
1772884863699166200,3.961166259765625,8.338388442993164,2.906083106994629,1.2610175609588623
1772884863715771100,3.977771240234375,5.091926574707031,2.7260231971740723,-0.3481557071208954
1772884863732383000,3.994383056640625,2.4155545234680176,2.675773859024048,-0.6592226624488831
1772884863748982800,4.010982666015625,1.1288141012191772,2.6321048736572266,0.0077766734175384045
1772884863765598000,4.027597900390625,1.1874382495880127,2.7625136375427246,0.5539384484291077
1772884863782186200,4.044186279296875,1.9782661199569702,2.493321180343628,-0.031106693670153618
1772884863798807800,4.060807861328125,3.0628130435943604,1.9405791759490967,-1.184447169303894
1772884863815415000,4.0774150390625,2.7361927032470703,1.51166570186615,-1.8652052879333496
1772884863832021500,4.094021484375,1.409970760345459,1.5966109037399292,-1.7419748306274414
1772884863848608300,4.110608154296875,1.5385849475860596,1.7748762369155884,-0.5174478888511658
1772884863865225200,4.12722509765625,3.3990044593811035,2.1511476039886475,0.4223332107067108
1772884863881828600,4.14382861328125,4.624728202819824,2.0889341831207275,0.28115665912628174
1772884863898422800,4.1604228515625,4.00618314743042,2.4185454845428467,-0.44027936458587646
1772884863915042800,4.177042724609375,3.171088218688965,3.0454649925231934,-0.4163511395454407
1772884863931650000,4.193650146484375,4.139583110809326,3.7124643325805664,1.835893154144287
1772884863948257500,4.210257568359375,10.201201438903809,6.060421466827393,4.788636207580566
1772884863964878800,4.22687890625,18.538991928100586,6.869195461273193,5.264209747314453
1772884863981472800,4.24347265625,22.81915283203125,5.276174068450928,0.9002995491027832
1772884863998091300,4.26009130859375,18.64906120300293,6.099305152893066,-2.8869404792785645
1772884864014705000,4.276704833984375,10.75274658203125,8.411968231201172,-2.901895761489868
1772884864031305000,4.293304931640625,3.524029493331909,10.731809616088867,-1.8299111127853394
1772884864047912200,4.309912109375,2.4113669395446777,12.576077461242676,-1.2221341133117676
1772884864064518100,4.32651806640625,5.470590591430664,10.485946655273438,-1.9818553924560547
1772884864081123800,4.343123779296875,9.476176261901855,7.874779224395752,-2.1433708667755127
1772884864097733600,4.359733642578125,15.487545013427734,5.653043270111084,-1.007378339767456
1772884864114335700,4.376335693359375,20.212770462036133,4.3417768478393555,2.8689942359924316
1772884864130951000,4.392950927734375,20.394027709960938,4.746163845062256,6.931408882141113
1772884864147547000,4.409546875,16.99442481994629,4.7796630859375,5.974878311157227
1772884864164168200,4.426168212890625,12.111271858215332,3.7082769870758057,1.795215129852295
1772884864180753400,4.44275341796875,8.399405479431152,2.888136863708496,-1.174277663230896
1772884864197357800,4.45935791015625,5.678766250610352,2.792423963546753,-1.867598056793213
1772884864213976600,4.4759765625,3.43908429145813,2.848057270050049,-1.0414760112762451
1772884864230592300,4.49259228515625,1.607378602027893,2.8211379051208496,-0.21774685382843018
1772884864247188700,4.509188720703125,1.4189438819885254,2.819941520690918,0.2709871530532837
1772884864263806700,4.525806640625,2.1511476039886475,2.504088878631592,0.08255238085985184
1772884864280393000,4.54239306640625,2.4400808811187744,2.201396942138672,-0.5240281820297241
1772884864297015300,4.559015380859375,1.8011972904205322,1.6013965606689453,-1.1509476900100708
1772884864313620200,4.5756201171875,0.7082754969596863,1.5541383028030396,-1.5469598770141602
1772884864330232000,4.592232177734375,0.1339980661869049,1.7784653902053833,-1.6378871202468872
1772884864346816800,4.608816650390625,2.0338993072509766,1.9669002294540405,-1.1018948554992676
1772884864363431700,4.625431640625,4.197608947753906,2.2408783435821533,-0.16510476171970367
1772884864380023600,4.6420234375,5.341378211975098,3.294318675994873,0.7208378314971924
1772884864396643800,4.658643798828125,6.196812629699707,5.949155330657959,0.1902294009923935
1772884864413250000,4.67525,6.7070817947387695,8.5704927444458,-1.3615161180496216
1772884864429857300,4.691857177734375,7.624131202697754,11.353344917297363,-1.571486234664917
1772884864446464300,4.70846435546875,6.615556240081787,13.174881935119629,0.1986042857170105
1772884864463088400,4.72508837890625,7.093522548675537,13.077373504638672,-0.16869398951530457
1772884864479681500,4.741681640625,9.32423210144043,13.206586837768555,-1.9070796966552734
1772884864496299000,4.758299072265625,9.34457015991211,14.021342277526855,-3.751945972442627
1772884864512904700,4.77490478515625,7.833503246307373,14.425729751586914,-3.1375887393951416
1772884864529514000,4.791513916015625,8.132007598876953,14.035699844360352,-1.8269200325012207
1772884864546118700,4.80811865234375,10.820343971252441,12.492926597595215,0.18903298676013947
1772884864562727200,4.82472705078125,11.990434646606445,9.954142570495605,2.0811574459075928
1772884864579321900,4.84132177734375,11.21934700012207,7.954938888549805,2.066202402114868
1772884864595940400,4.8579404296875,12.121440887451172,5.982056617736816,1.089930772781372
1772884864612547000,4.874547119140625,11.889935493469238,4.6199421882629395,0.5599204897880554
1772884864629154300,4.891154296875,9.016754150390625,4.456034183502197,0.43130627274513245
1772884864645760800,4.9077607421875,5.6548380851745605,4.292125701904297,0.2721835672855377
1772884864662367700,4.92436767578125,2.901895761489868,4.001397609710693,-0.02512463741004467
1772884864678946800,4.94094677734375,1.8352949619293213,3.6095728874206543,-0.357128769159317
1772884864695581400,4.95758154296875,2.4562325477600098,3.1381869316101074,-0.4307080805301666
1772884864712186400,4.974186279296875,4.267599105834961,2.8636105060577393,-0.10348957777023315
1772884864728798500,4.990798583984375,4.828117847442627,2.6428725719451904,0.08315058797597885
1772884864745398000,5.00739794921875,4.082155227661133,2.583052158355713,-0.01375873014330864
1772884864762013400,5.024013427734375,3.067598581314087,2.816352367401123,-0.05383851006627083
1772884864778616600,5.040616455078125,2.5501506328582764,3.1316065788269043,-0.04426721855998039
1772884864795223300,5.057223388671875,3.304488182067871,3.649054527282715,-0.26440688967704773
1772884864811805700,5.0738056640625,4.570291042327881,3.9840497970581055,-0.37447673082351685
1772884864828434000,5.090433837890625,5.5591254234313965,5.033900737762451,-0.46779683232307434
1772884864845030400,5.107030517578125,6.56829833984375,6.477969169616699,-0.7645068168640137
1772884864861637000,5.12363720703125,7.674978733062744,8.462217330932617,-1.4207384586334229
1772884864878240800,5.14024072265625,6.665207386016846,9.748957633972168,-2.166102647781372
1772884864894854100,5.156854248046875,4.841278553009033,9.326624870300293,-2.048854351043701
1772884864911457500,5.17345751953125,5.5244293212890625,9.868598937988281,-1.3357932567596436
1772884864928065000,5.19006494140625,7.451249599456787,10.76411247253418,-1.1443674564361572
1772884864944664000,5.2066640625,8.970691680908203,10.939387321472168,-2.495713949203491
1772884864961293300,5.223293212890625,9.859625816345215,11.72542953491211,-2.6045875549316406
1772884864977873700,5.239873779296875,10.470394134521484,12.336795806884766,-1.077966570854187
1772884864994509800,5.256509765625,9.861420631408691,12.527024269104004,0.026919255033135414
1772884865011113000,5.273113037109375,9.022735595703125,11.81874942779541,0.7058826684951782
1772884865027720000,5.289719970703125,9.013164520263672,10.235299110412598,1.2251251935958862
1772884865044323000,5.306322998046875,9.06700325012207,8.599804878234863,1.1455638408660889
1772884865060934100,5.32293408203125,8.391031265258789,7.354938507080078,0.9439685344696045
1772884865077540900,5.339540771484375,7.2867431640625,6.233901023864746,0.7890332937240601
1772884865094151700,5.356151611328125,5.710471153259277,5.2043890953063965,0.5126622319221497
1772884865110759400,5.372759521484375,4.361517429351807,4.18145751953125,-0.20937198400497437
1772884865127362300,5.3893623046875,4.1006999015808105,3.187239646911621,-1.2813565731048584
1772884865143968300,5.40596826171875,4.645665168762207,2.4951157569885254,-1.9399809837341309
1772884865160572200,5.422572265625,4.881956577301025,2.204387903213501,-1.7569299936294556
1772884865177182700,5.4391826171875,4.9501519203186035,2.1876380443573,-0.8297112584114075
1772884865193793500,5.45579345703125,4.856233596801758,2.282752752304077,-0.3122633695602417
1772884865210383400,5.47238330078125,4.53200626373291,2.2031915187835693,-0.38225340843200684
1772884865227003400,5.48900341796875,4.022335052490234,2.2474586963653564,-0.589830756187439
1772884865243606000,5.50560595703125,3.8219358921051025,2.428116798400879,-0.711864709854126
1772884865260201000,5.522200927734375,3.7609190940856934,3.3236305713653564,-0.8961120843887329
1772884865276824600,5.538824462890625,3.3607194423675537,4.745565414428711,-0.8739784955978394
1772884865293433900,5.555433837890625,4.3998026847839355,6.179464340209961,-1.0654042959213257
1772884865310063600,5.572063720703125,6.543771743774414,7.296912670135498,-1.4518451690673828
1772884865326628000,5.588628173828125,7.527820110321045,8.96650505065918,-1.2580264806747437
1772884865343234800,5.60523486328125,7.4602227210998535,9.92243766784668,-0.035892341285943985
1772884865359834400,5.62183447265625,9.851250648498535,10.411170959472656,1.9100706577301025
1772884865376449000,5.638448974609375,15.233306884765625,9.237491607666016,2.688934564590454
1772884865393061400,5.655061279296875,17.45564079284668,7.5427751541137695,1.0426725149154663
1772884865409665300,5.671665283203125,14.436497688293457,7.306483745574951,-0.3577269911766052
1772884865426272300,5.688272216796875,11.672188758850098,7.830512046813965,-0.8404789566993713
1772884865442892300,5.704892333984375,11.197213172912598,7.650452136993408,0.672383189201355
1772884865459498500,5.72149853515625,9.772886276245117,6.228517532348633,1.2484551668167114
1772884865476108300,5.7381083984375,7.775477409362793,4.429712772369385,0.8303094506263733
1772884865492717800,5.7547177734375,7.028318405151367,2.7008986473083496,0.0568295381963253
1772884865509283000,5.771282958984375,8.114660263061523,1.4398809671401978,-0.5712863802909851
1772884865525927700,5.787927734375,8.48734188079834,0.6089733839035034,-0.8614161610603333
1772884865542517800,5.804517822265625,8.338987350463867,0.03529413416981697,-1.1324033737182617
1772884865559129300,5.82112939453125,7.573283672332764,-0.3577269911766052,-1.5188441276550293
1772884865575746600,5.83774658203125,5.818148136138916,-0.39122650027275085,-1.461416482925415
1772884865592355300,5.854355224609375,4.0319061279296875,-0.05802594870328903,-0.7070791125297546
1772884865608945700,5.870945556640625,2.9318058490753174,0.529412031173706,0.32662028074264526
1772884865625569000,5.887569091796875,2.6051857471466064,0.9302098155021667,0.6185446381568909
1772884865642173200,5.904173095703125,2.6051857471466064,1.23589289188385,0.7310073375701904
1772884865658786600,5.92078662109375,3.3996028900146484,1.9010975360870361,1.1808580160140991
1772884865675367700,5.93736767578125,3.751945972442627,2.6847469806671143,1.7922241687774658
1772884865691996700,5.95399658203125,3.7334015369415283,3.4821550846099854,1.9800606966018677
1772884865708604200,5.970604248046875,4.812564373016357,3.9044883251190186,2.0673987865448
1772884865725210600,5.987210693359375,8.449654579162598,4.4961137771606445,2.434098720550537
1772884865741816800,6.00381689453125,12.40977668762207,5.582455158233643,2.362314224243164
1772884865758424600,6.020424560546875,16.192829132080078,7.2676005363464355,0.27756741642951965
1772884865775035600,6.03703564453125,19.305294036865234,9.467203140258789,-1.8616160154342651
1772884865791633200,6.053633056640625,20.66680908203125,12.838091850280762,-2.671586513519287
1772884865808246800,6.070246826171875,18.72981834411621,17.55314826965332,-1.339382529258728
1772884865824833800,6.086833740234375,17.452051162719727,20.91566276550293,-0.4325026869773865
1772884865841453800,6.103453857421875,20.77029800415039,19.45903205871582,0.07896314561367035
1772884865858052400,6.12005224609375,26.444278717041016,17.350955963134766,-0.28893333673477173
1772884865874658800,6.136658935546875,28.217361450195312,15.923636436462402,-1.8975083827972412
1772884865891263000,6.153262939453125,24.46481704711914,16.25922966003418,-4.007379531860352
1772884865907873000,6.169873046875,17.825929641723633,15.097514152526855,-4.767100811004639
1772884865924500500,6.18650048828125,7.376473903656006,12.194422721862793,-4.112663745880127
1772884865941100300,6.203100341796875,-0.6071787476539612,7.858029365539551,0.6544370055198669
1772884865957707500,6.21970751953125,-1.8789639472961426,4.872983455657959,7.627122402191162
1772884865974314200,6.236314208984375,2.6452653408050537,1.6893328428268433,12.65743350982666
1772884865990901000,6.25290087890625,7.409375190734863,-0.6664010882377625,14.420944213867188
1772884866007528400,6.269528564453125,10.547562599182129,0.0891326442360878,12.80160140991211
1772884866024138800,6.286138671875,14.304293632507324,1.0863415002822876,7.579265594482422
1772884866040742100,6.3027421875,21.693927764892578,-2.0673987865448,-1.4051851034164429
1772884866057347300,6.319347412109375,18.973886489868164,-2.9772696495056152,-7.298707485198975
1772884866073957600,6.33595751953125,9.205188751220703,-1.9004993438720703,-6.714260101318359
1772884866090561500,6.3525615234375,3.1513473987579346,-1.6671991348266602,-1.7425731420516968
1772884866107169800,6.369169677734375,-0.45583271980285645,-1.0971091985702515,2.2468605041503906
1772884866123780600,6.385780517578125,-1.4273186922073364,-1.196411371231079,2.012363910675049
1772884866140384800,6.402384765625,-0.2727817893028259,-1.7868403196334839,-0.9828519225120544
1772884866156990700,6.41899072265625,1.287936806678772,-1.846660852432251,-3.311666488647461
1772884866173597000,6.435596923828125,2.1098713874816895,-1.5822539329528809,-4.151547431945801
1772884866190189000,6.45218896484375,3.207578659057617,-1.1012966632843018,-1.7623138427734375
1772884866206811100,6.46881103515625,4.941178798675537,-0.16929219663143158,1.2239288091659546
1772884866223422000,6.485421875,4.060021877288818,0.22432711720466614,2.2504496574401855
1772884866240042200,6.502042236328125,1.2287144660949707,0.35892340540885925,1.4111671447753906
1772884866256632300,6.51863232421875,-0.3678964674472809,0.6245267391204834,0.16929219663143158
1772884866273229000,6.53522900390625,-0.5180460810661316,1.0241280794143677,-0.3577269911766052
1772884866285744400,6.547744384765625,-0.007178467698395252,1.0701899528503418,-1.1928220987319946
1772884866302300700,6.56430078125,0.45224347710609436,0.98703932762146,-1.4590235948562622
1772884866318892500,6.580892578125,0.5838487148284912,1.1647064685821533,-0.8213363885879517
1772884866335499800,6.597499755859375,0.9116654396057129,1.5619150400161743,0.1423729509115219
1772884866352110600,6.614110595703125,2.5746772289276123,1.5852450132369995,0.5964110493659973
1772884866368715800,6.6307158203125,2.462214469909668,1.633101463317871,1.2023934125900269
1772884866385322800,6.64732275390625,2.0237298011779785,1.8741782903671265,0.4989035129547119
1772884866401929500,6.663929443359375,1.5158531665802002,2.1278176307678223,-0.022133609279990196
1772884866418536700,6.68053662109375,1.4374881982803345,2.554338216781616,0.22851456701755524
1772884866435156700,6.69715673828125,3.634697675704956,3.5682966709136963,0.6753742098808289
1772884866451751400,6.71375146484375,7.729415416717529,4.161118507385254,1.256830096244812
1772884866468371000,6.730370849609375,12.151351928710938,4.536791801452637,1.1389836072921753
1772884866484978200,6.746978271484375,14.167902946472168,5.990431308746338,-0.8793623447418213
1772884866501584600,6.763584716796875,11.135000228881836,7.974679470062256,-2.7601208686828613
1772884866518185200,6.780185302734375,7.9519476890563965,10.527223587036133,-1.551147222518921
1772884866534789600,6.79678955078125,6.5904316902160645,14.379069328308105,3.1722846031188965
1772884866551390000,6.813389892578125,4.600201606750488,12.260225296020508,5.687739372253418
1772884866567998700,6.829998779296875,4.36391019821167,9.388239860534668,2.152343988418579
1772884866584605700,6.846605712890625,5.774479389190674,8.909076690673828,-2.4699912071228027
1772884866601212400,6.86321240234375,10.847861289978027,8.293522834777832,-3.662214994430542
1772884866617819100,6.879819091796875,16.895122528076172,9.034700393676758,-2.344966173171997
1772884866634439400,6.896439453125,19.99980926513672,11.01416301727295,1.0115658044815063
1772884866651034400,6.913034423828125,18.355939865112305,11.196615219116211,4.511068820953369
1772884866667654100,6.929654052734375,14.651851654052734,9.644271850585938,5.254040241241455
1772884866684261000,6.94626123046875,12.067004203796387,8.118846893310547,3.5479576587677
1772884866700867300,6.962867431640625,11.230712890625,6.368497371673584,0.9451649188995361
1772884866717474800,6.979474853515625,12.252448081970215,4.871188640594482,-0.16271193325519562
1772884866734077400,6.996077392578125,13.840085983276367,3.8572301864624023,-0.13160525262355804
1772884866750691800,7.01269189453125,14.710474967956543,3.0963125228881836,0.784247636795044
1772884866767295500,7.02929541015625,13.414761543273926,2.8522446155548096,1.80717933177948
1772884866783902000,7.04590185546875,9.962516784667969,3.029911756515503,2.2654049396514893
1772884866800509000,7.062509033203125,5.688337802886963,2.9593234062194824,1.9214365482330322
1772884866817099000,7.07909912109375,2.6871397495269775,3.126222848892212,1.308275818824768
1772884866833706200,7.095706298828125,2.812164783477783,2.5669004917144775,0.7190431952476501
1772884866850319400,7.1123193359375,5.1906304359436035,1.9956140518188477,-0.10707881301641464
1772884866866923300,7.12892333984375,6.658627033233643,1.8323038816452026,-0.7471588850021362
1772884866883530000,7.145530029296875,6.597012042999268,1.867598056793213,-0.8781659007072449
1772884866900136700,7.16213671875,5.865406513214111,2.2342982292175293,-0.5258227586746216
1772884866916744000,7.178743896484375,5.440680503845215,2.7672994136810303,-0.019142581149935722
1772884866933364200,7.1953642578125,5.9814581871032715,3.290729284286499,-0.08075776696205139
1772884866949971000,7.211970947265625,8.407780647277832,3.929612874984741,-0.8105686902999878
1772884866966578200,7.228578125,11.44546890258789,4.861617565155029,-1.566102385520935
1772884866983155200,7.2451552734375,15.285350799560547,5.913861274719238,-1.186241865158081
1772884866999778300,7.2617783203125,17.692529678344727,6.794419765472412,-0.0029910283628851175
1772884867016382200,7.27838232421875,16.541582107543945,6.0472612380981445,1.043868899345398
1772884867032994300,7.294994384765625,13.573884963989258,5.643472194671631,1.155733346939087
1772884867049600500,7.3116005859375,11.994621276855469,5.154139995574951,0.6837490797042847
1772884867066206000,7.3282060546875,13.882558822631836,4.383651256561279,0.885344386100769
1772884867082816300,7.344816162109375,15.648462295532227,4.113262176513672,0.7459624409675598
1772884867099434000,7.36143408203125,15.153745651245117,4.473979949951172,0.4253242313861847
1772884867116040200,7.378040283203125,11.978469848632812,5.528018474578857,0.35413774847984314
1772884867132639700,7.3946396484375,9.385248184204102,5.985645771026611,0.3433700501918793
1772884867149235500,7.4112353515625,7.816753387451172,5.517848968505859,-0.20937198400497437
1772884867165861000,7.427861083984375,6.970890522003174,4.800002098083496,-0.5760720372200012
1772884867182467800,7.4444677734375,7.090531826019287,3.9625144004821777,-0.397208571434021
1772884867199070500,7.461070556640625,7.234699249267578,3.174079179763794,-0.0011964113218709826
1772884867215682300,7.477682373046875,6.6490559577941895,2.7254250049591064,0.1902294009923935
1772884867232284700,7.49428466796875,5.5860443115234375,2.599203586578369,0.01196411345154047
1772884867248899800,7.51089990234375,4.859822750091553,2.076371908187866,-0.2727817893028259
1772884867265503000,7.5275029296875,4.1078782081604,1.7934205532073975,-0.6269195079803467
1772884867282109400,7.544109375,3.6574294567108154,1.9908283948898315,-1.103689432144165
1772884867298713000,7.560713134765625,3.7507495880126953,2.410170555114746,-1.1832507848739624
1772884867315299800,7.5772998046875,4.511068820953369,2.8558337688446045,-0.8464609980583191
1772884867331913500,7.59391357421875,5.5758748054504395,3.517449378967285,-0.6017948985099792
1772884867348526600,7.610526611328125,7.231110095977783,3.9972102642059326,-0.1339980661869049
1772884867365130200,7.627130126953125,9.621540069580078,3.90568470954895,0.4049852192401886
1772884867381737200,7.6437373046875,12.566506385803223,4.444069862365723,0.5575276613235474
1772884867398344200,7.66034423828125,13.987244606018066,4.622334957122803,0.34995031356811523
1772884867414951000,7.676950927734375,13.573286056518555,5.078765869140625,0.3158525824546814
1772884867431569000,7.69356884765625,12.300304412841797,6.314659118652344,0.4007977843284607
1772884867448184800,7.710184814453125,10.635498046875,7.366304397583008,0.33439695835113525
1772884867464785400,7.726785400390625,9.159725189208984,7.676175117492676,0.10229317098855972
1772884867481392000,7.74339208984375,8.4562349319458,8.030312538146973,-0.5222335457801819
1772884867497999000,7.7599990234375,8.824131965637207,8.444271087646484,-0.7100701332092285
1772884867514606000,7.776606201171875,10.018150329589844,8.165507316589355,-0.5377869009971619
1772884867531182800,7.793182861328125,11.320444107055664,7.688737392425537,-0.7052844762802124
1772884867547800800,7.80980078125,11.80618667602539,7.013961315155029,-1.4578272104263306
1772884867564416300,7.826416259765625,11.877373695373535,5.959922790527344,-1.3112667798995972
1772884867581020400,7.8430205078125,10.485946655273438,4.707280158996582,-0.24646073579788208
1772884867597627100,7.859627197265625,7.821538925170898,3.814159393310547,0.753140926361084
1772884867614233900,7.87623388671875,5.435894966125488,3.067598581314087,1.3465609550476074
1772884867630839300,7.89283935546875,3.9332022666931152,2.434098720550537,1.536790370941162
1772884867647466000,7.909466064453125,3.0346972942352295,1.887937068939209,1.0869396924972534
1772884867664068400,7.926068359375,2.5196423530578613,1.5092729330062866,0.243469700217247
1772884867680675000,7.942675048828125,2.0883359909057617,1.3351950645446777,-0.5533402562141418
1772884867697265200,7.95926513671875,2.410768747329712,1.3214362859725952,-0.7214360237121582
1772884867713888800,7.975888671875,2.8486554622650146,0.9487541913986206,-0.802193820476532
1772884867730480400,7.99248046875,2.857628345489502,1.0253244638442993,-0.664606511592865
1772884867747107000,8.009107177734375,2.1367905139923096,1.2029916048049927,-0.4259224236011505
1772884867763710000,8.0257099609375,0.7513462901115417,1.4009976387023926,-0.47617170214653015
1772884867780316400,8.04231640625,-0.24107688665390015,1.6761722564697266,-0.4378865361213684
1772884867834253600,8.096253662109374,4.261617183685303,3.0005996227264404,0.10289137065410614
1772884867850881300,8.11288134765625,8.449654579162598,3.0203404426574707,0.3044866919517517
1772884867867487700,8.12948779296875,13.092926979064941,3.2333016395568848,-0.31824541091918945
1772884867884089600,8.146089599609375,19.326231002807617,4.576871395111084,-1.8448662757873535
1772884867900703000,8.162702880859374,20.21157455444336,4.95493745803833,-3.6167514324188232
1772884867917330200,8.179330078125,19.651653289794922,7.331010341644287,-4.064807415008545
1772884867933913300,8.195913330078126,18.809978485107422,8.534002304077148,-4.242474555969238
1772884867950536700,8.21253662109375,18.44806480407715,8.176873207092285,-2.0141584873199463
1772884867967141000,8.22914111328125,19.063020706176758,10.945368766784668,-0.9547362327575684
1772884867983752400,8.24575244140625,21.707687377929688,11.459227561950684,-1.1856436729431152
1772884868000355800,8.26235595703125,24.24467658996582,12.201601028442383,-2.5914268493652344
1772884868016964600,8.278964599609376,25.382463455200195,10.990832328796387,1.8795621395111084
1772884868033554400,8.295554443359375,20.60040855407715,9.330811500549316,4.864608287811279
1772884868050177800,8.312177734375,12.20638656616211,7.1850481033325195,5.111069202423096
1772884868066785500,8.32878564453125,6.535397052764893,5.130809783935547,4.195216178894043
1772884868083391200,8.34539111328125,5.327021598815918,2.6189444065093994,3.160320520401001
1772884868099999200,8.361999267578126,10.802995681762695,1.8502501249313354,1.9567307233810425
1772884868116604200,8.378604248046875,18.59462547302246,1.8029918670654297,0.5252245664596558
1772884868133195500,8.395195556640624,20.4831600189209,1.9812572002410889,-0.7034898400306702
1772884868149792500,8.41179248046875,15.092130661010742,3.2333016395568848,-1.1665010452270508
1772884868166420200,8.428420166015625,7.041478633880615,3.4719855785369873,-0.05742774158716202
1772884868183026200,8.445026123046874,0.9631111025810242,3.9840497970581055,1.2861422300338745
1772884868199640800,8.461640869140625,-1.1042876243591309,4.067798614501953,2.967698335647583
1772884868216242400,8.478242431640625,-0.2745763957500458,2.4634108543395996,3.0233314037323
1772884868232837000,8.494837158203126,1.6893328428268433,1.6654045581817627,0.1986042857170105
1772884868249460700,8.511460693359375,4.572085857391357,1.007378339767456,-2.079961061477661
1772884868266061800,8.528061767578125,5.229514122009277,0.1495514214038849,-2.8552355766296387
1772884868282686200,8.544686279296876,4.482953071594238,0.16390834748744965,-2.0757737159729004
1772884868299257600,8.561257568359375,2.8965117931365967,0.6131607890129089,-1.1886346340179443
1772884868315874600,8.57787451171875,1.2699905633926392,1.3597214221954346,-0.37507495284080505
1772884868332468000,8.594468017578125,0.21176479756832123,1.8131613731384277,0.12203395366668701
1772884868349088300,8.611088134765625,-0.48035913705825806,1.9926230907440186,0.08434699475765228
1772884868365695000,8.627695068359374,-0.6783652305603027,1.9872392416000366,-0.1537388563156128
1772884868382302200,8.64430224609375,0.576670229434967,1.6941183805465698,-0.10588239878416061
1772884868398908700,8.66090869140625,2.48315167427063,1.4267204999923706,-0.5916253924369812
1772884868415510300,8.67751025390625,3.4887354373931885,0.6430711150169373,-0.5174478888511658
1772884868432128800,8.694128662109375,3.757927894592285,0.26500511169433594,-0.7322037220001221
1772884868448743700,8.71074365234375,3.73459792137146,0.25423741340637207,-0.6699903607368469
1772884868465355800,8.727355712890626,2.6081767082214355,0.46420758962631226,-0.32243284583091736
1772884868481947100,8.743947021484376,0.9996016621589661,1.0115658044815063,-0.33798620104789734
1772884868498565000,8.760565185546875,0.04666004329919815,1.8801604509353638,-0.13459627330303192
1772884868515174100,8.777174072265625,0.8261220455169678,3.067000389099121,0.2955136001110077
1772884868531761200,8.79376123046875,3.7118661403656006,4.13060998916626,0.49232324957847595
1772884868548385000,8.810385009765625,9.093324661254883,4.523033142089844,-0.061016976833343506
1772884868564996400,8.826996337890625,13.634902000427246,4.3070807456970215,-2.159522533416748
1772884868581589800,8.84358984375,15.173486709594727,5.534000396728516,-3.297309637069702
1772884868598205200,8.860205078125,14.757733345031738,9.200403213500977,-2.1439690589904785
1772884868614815700,8.876815673828125,9.857831001281738,12.18784236907959,-0.01375873014330864
1772884868631404000,8.893404052734375,1.9932212829589844,11.453245162963867,0.3840480446815491
1772884868648026000,8.910026123046874,0.3433700501918793,11.047063827514648,-0.714257538318634
1772884868664633000,8.926633056640625,5.886343479156494,9.688538551330566,-2.1714866161346436
1772884868681235500,8.9432353515625,16.034303665161133,8.48734188079834,-2.213959217071533
1772884868697846800,8.9598466796875,20.843280792236328,8.041678428649902,-2.7942185401916504
1772884868714457900,8.976457763671876,20.395822525024414,10.460822105407715,-1.9417755603790283
1772884868731043300,8.993043212890624,15.846467971801758,12.841680526733398,-0.6837490797042847
1772884868747664000,9.009663818359375,10.707283020019531,12.758530616760254,-0.22013968229293823
1772884868764280800,9.02628076171875,8.714061737060547,10.641480445861816,-0.9128618240356445
1772884868780874800,9.042874755859375,10.716854095458984,7.530212879180908,-2.2337000370025635
1772884868797474800,9.059474853515624,13.890933990478516,5.0979084968566895,-3.1543383598327637
1772884868814081500,9.07608154296875,15.142977714538574,4.073780536651611,-2.6763720512390137
1772884868830688000,9.09268798828125,13.9722900390625,3.926621913909912,-1.412961721420288
1772884868847295500,9.10929541015625,11.496914863586426,3.6424741744995117,-0.9804590940475464
1772884868863901700,9.125901611328125,9.503094673156738,3.1692936420440674,-1.311864972114563
1772884868880511500,9.142511474609375,8.260024070739746,2.789433002471924,-1.542174220085144
1772884868897111600,9.159111572265624,7.487142086029053,2.5058834552764893,-1.2819547653198242
1772884868913737200,9.1757373046875,8.14098072052002,2.2947168350219727,-1.4590235948562622
1772884868930326500,9.192326416015625,8.58903694152832,2.1924238204956055,-1.2903295755386353
1772884868946950400,9.208950439453124,8.13679313659668,2.5603201389312744,-0.6011967062950134
1772884868963556900,9.225556884765625,7.8795647621154785,2.8325037956237793,-0.31046873331069946
1772884868980160300,9.24216015625,7.658228874206543,2.761915445327759,-0.7597211599349976
1772884868996771000,9.25877099609375,7.2813591957092285,3.001796007156372,-1.3154542446136475
1772884869013381600,9.275381591796876,6.412764549255371,3.525225877761841,-0.9044869542121887
1772884869029968000,9.2919677734375,5.7547383308410645,4.106681823730469,-0.3326023519039154
1772884869046592000,9.308592041015626,6.0508503913879395,4.401597023010254,-0.29850462079048157
1772884869063198000,9.325197998046875,7.298707485198975,4.3411784172058105,-0.664606511592865
1772884869079801300,9.34180126953125,7.2681989669799805,4.652843475341797,-0.7483552694320679
1772884869096412400,9.358412353515625,6.1328043937683105,5.219942569732666,-0.8141579031944275
1772884869113023200,9.375023193359375,5.983851432800293,5.344967365264893,-0.49172505736351013
1772884869129609200,9.391609130859376,7.109674453735352,5.344967365264893,0.4055834412574768
1772884869146232600,9.408232666015625,8.070392608642578,5.26181697845459,0.729810893535614
1772884869162842400,9.42484228515625,7.826324462890625,4.969294548034668,-0.08434699475765228
1772884869179440000,9.441440185546876,6.869793891906738,5.330610752105713,-0.47796630859375
1772884869196053800,9.4580537109375,6.930810928344727,5.496912002563477,-0.8691928386688232
1772884869212664800,9.474664794921875,8.075178146362305,5.255835056304932,-1.4943177700042725
1772884869229267000,9.491266845703125,8.617152214050293,5.3078789710998535,-1.8747764825820923
1772884869245874400,9.50787451171875,9.838089942932129,5.361717224121094,-1.5750755071640015
1772884869262464300,9.52446435546875,10.743175506591797,5.159523963928223,-1.347757339477539
