time,seconds_elapsed,z,y,x
1772884859900315400,0.1623154296875,-0.03390302136540413,-0.1592831164598465,-0.08414668589830399
1772884859916925200,0.17892529296875,-0.035124752670526505,-0.1670716404914856,-0.11667526513338089
1772884859933530600,0.195530517578125,-0.019547687843441963,-0.22937989234924316,-0.168751522898674
1772884859950136800,0.21213671875,0.03481931984424591,-0.2971859276294708,-0.2834414839744568
1772884859966736100,0.228736083984375,0.08399397134780884,-0.3254384696483612,-0.4202753007411957
1772884859983351600,0.2453515625,0.04108068719506264,-0.2571742534637451,-0.3735440969467163
1772884859999977500,0.2619775390625,-0.05207626149058342,-0.21013765037059784,-0.19975294172763824
1772884860016575500,0.278575439453125,-0.11621711403131485,-0.11285735666751862,-0.02687807008624077
1772884860033175000,0.295175048828125,-0.07437284290790558,-0.05115996301174164,-0.030085112899541855
1772884860049793500,0.31179345703125,0.032070424407720566,-0.03130684420466423,-0.11301007121801376
1772884860066380800,0.328380859375,0.06872233748435974,-0.036041051149368286,-0.1713477075099945
1772884860083007000,0.345007080078125,0.011759156361222267,0.05467243865132332,-0.1696678251028061
1772884860099615200,0.361615234375,-0.04260785132646561,0.12324206531047821,-0.09514226019382477
1772884860116220400,0.378220458984375,-0.04886921867728233,0.054367005825042725,-0.005803219974040985
1772884860132815400,0.3948154296875,-0.03329215571284294,-0.08536841720342636,0.05955936014652252
1772884860149436200,0.411436279296875,0.001527163083665073,-0.16523905098438263,0.08827003091573715
1772884860166017500,0.428017578125,0.0010690141934901476,-0.15347988903522491,0.10506882518529892
1772884860182647600,0.4446474609375,-0.0074830991216003895,-0.09315694868564606,0.11194105446338654
1772884860199259400,0.46125927734375,-0.012522737495601177,-0.09010262042284012,0.11209376901388168
1772884860215863300,0.47786328125,-0.018325956538319588,-0.09651670604944229,0.11484266817569733
1772884860232454400,0.494454345703125,-0.03955352306365967,-0.12522737681865692,0.10934487730264664
1772884860249077200,0.5110771484375,-0.07070764899253845,-0.12690725922584534,0.10812314599752426
1772884860265660000,0.527659912109375,-0.07925976812839508,-0.10186178237199783,0.10476338863372803
1772884860282285300,0.544285400390625,-0.060475658625364304,-0.04535674303770065,0.13072516024112701
1772884860298898200,0.560898193359375,-0.02871066704392433,-0.029168816283345222,0.12186761945486069
1772884860315503600,0.577503662109375,-0.005039638374000788,-0.0887281745672226,0.09392052888870239
1772884860332106200,0.594106201171875,-0.015882495790719986,-0.2217440903186798,0.058337632566690445
1772884860348719000,0.610718994140625,-0.038026362657547,-0.31383201479911804,0.03848451003432274
1772884860365320200,0.6273203125,-0.01924225501716137,-0.3271183371543884,0.01863138936460018
1772884860381930500,0.643930419921875,0.038026362657547,-0.37980547547340393,0.0354301854968071
1772884860398525700,0.660525634765625,0.08827003091573715,-0.4386012554168701,0.16340644657611847
1772884860415131100,0.677131103515625,0.15134187042713165,-0.5090034604072571,0.3280346393585205
1772884860431743700,0.69374365234375,0.2480112910270691,-0.6224716901779175,0.4248567819595337
1772884860448346600,0.7103466796875,0.3171917796134949,-0.7750352621078491,0.4179845452308655
1772884860464942000,0.726942138671875,0.35384368896484375,-0.8709411025047302,0.34345898032188416
1772884860481561900,0.743561767578125,0.36071592569351196,-0.8097018599510193,0.2249511331319809
1772884860498167300,0.760167236328125,0.2788599729537964,-0.6427829265594482,0.10644327104091644
1772884860514777300,0.77677734375,0.17256943881511688,-0.40225476026535034,-0.012522737495601177
1772884860531390500,0.793390380859375,0.08994990587234497,-0.18524488806724548,-0.14737124741077423
1772884860548003300,0.81000341796875,0.05849034711718559,-0.06811147183179855,-0.25244006514549255
1772884860564583200,0.826583251953125,0.054367005825042725,-0.019394971430301666,-0.31581732630729675
1772884860581215500,0.843215576171875,0.05665775015950203,0.02168571576476097,-0.3448334336280823
1772884860597822000,0.859822021484375,0.008246680721640587,0.04184427112340927,-0.3770565688610077
1772884860614429000,0.876428955078125,-0.06322455406188965,0.11316278576850891,-0.38179078698158264
1772884860631037400,0.893037353515625,-0.15241087973117828,0.15332718193531036,-0.37110063433647156
1772884860647642400,0.909642333984375,-0.25244006514549255,0.1088867336511612,-0.3188716471195221
1772884860664270300,0.926270263671875,-0.34758231043815613,0.0607810914516449,-0.370947927236557
1772884860680858600,0.942858642578125,-0.40591996908187866,0.11453723162412643,-0.5427537560462952
1772884860697441300,0.959441162109375,-0.6207917928695679,0.3113885521888733,-0.370947927236557
1772884860714055000,0.976054931640625,-0.926224410533905,0.7644978761672974,0.2961169183254242
1772884860730661000,0.9926611328125,-1.0531316995620728,1.4004086256027222,1.0093021392822266
1772884860747282200,1.0092822265625,-0.837496280670166,1.8825340270996094,0.9001099467277527
1772884860763871700,1.025871826171875,-0.6046038866043091,2.342668294906616,0.2922990322113037
1772884860780497200,1.0424970703125,-0.5723807215690613,2.2350032329559326,-0.4983133375644684
1772884860797105400,1.05910546875,-0.7180721163749695,1.6688838005065918,-1.0364855527877808
1772884860813711000,1.075711181640625,-0.8810204267501831,0.983951210975647,-1.2928962707519531
1772884860830324500,1.092324462890625,-0.8419250249862671,0.15531249344348907,-1.5616769790649414
1772884860846925800,1.10892578125,-0.6959282159805298,-0.5920811295509338,-1.6672040224075317
1772884860863524400,1.1255244140625,-0.45921793580055237,-1.4227051734924316,-1.7519614696502686
1772884860880124000,1.1421240234375,-0.10262536257505417,-2.143526077270508,-1.8452712297439575
1772884860896736000,1.158736083984375,0.1287398487329483,-2.5920538902282715,-2.0784690380096436
1772884860913336800,1.1753369140625,0.10064005106687546,-2.356565475463867,-2.44559907913208
1772884860929956000,1.1919560546875,0.018020525574684143,-1.3238977193832397,-2.757445812225342
1772884860946556400,1.208556396484375,-0.11728613078594208,-0.4810563921928406,-2.56257963180542
1772884860963149600,1.225149658203125,-0.26481008529663086,-0.01114829070866108,-2.2065980434417725
1772884860979768000,1.24176806640625,-0.11881329119205475,-0.03833179548382759,-2.3988678455352783
1772884860996376000,1.2583759765625,-0.041233405470848083,-1.315956473350525,-3.0442469120025635
1772884861012999700,1.274999755859375,-0.19349156320095062,-3.3982434272766113,-2.7844765186309814
1772884861029580500,1.29158056640625,-0.6091853380203247,-3.8122572898864746,-0.9862419366836548
1772884861046215400,1.30821533203125,-1.0835222005844116,-3.1413745880126953,0.6107125282287598
1772884861062807600,1.3248076171875,-1.3518447875976562,-2.375960350036621,0.8878926634788513
1772884861079423500,1.341423583984375,-1.320690631866455,-1.2699888944625854,0.03527746722102165
1772884861096031500,1.358031494140625,-1.2431107759475708,-0.1362229436635971,-1.2069170475006104
1772884861112635400,1.374635498046875,-1.302364706993103,0.08964447677135468,-1.674839735031128
1772884861129228800,1.391228759765625,-1.1279627084732056,-0.28420504927635193,-0.8151996731758118
1772884861145836500,1.40783642578125,-0.7701483368873596,-0.9534079432487488,0.8330674767494202
1772884861162425900,1.42442578125,-0.6389650702476501,-1.6381878852844238,1.948354721069336
1772884861179065900,1.44106591796875,-0.7382306456565857,-1.275639295578003,1.8810068368911743
1772884861195671300,1.45767138671875,-0.8930850028991699,0.1463022232055664,0.8845328688621521
1772884861212280300,1.4742802734375,-0.8600982427597046,1.4300355911254883,-0.11285735666751862
1772884861228882200,1.490882080078125,-0.5725334286689758,1.8942930698394775,-0.4356996417045593
1772884861245492000,1.507491943359375,-0.10354165732860565,1.4862351417541504,-0.15347988903522491
1772884861262119700,1.52411962890625,0.2583959996700287,0.789237916469574,0.4167627990245819
1772884861278707200,1.540707275390625,0.38499781489372253,0.38576140999794006,0.8378016948699951
1772884861295288300,1.557288330078125,0.35063666105270386,0.40164390206336975,0.9138544201850891
1772884861311921200,1.573921142578125,0.2571742534637451,0.7422012686729431,0.7605272531509399
1772884861328502800,1.590502685546875,0.23228150606155396,1.2779301404953003,0.5929974317550659
1772884861345123800,1.607123779296875,0.3550654351711273,1.7402023077011108,0.5517640113830566
1772884861361710300,1.62371044921875,0.5923865437507629,1.7928894758224487,0.7400632500648499
1772884861378335000,1.6403349609375,0.8381071090698242,1.6740761995315552,0.9721920490264893
1772884861394943000,1.65694287109375,1.0364855527877808,1.5682437419891357,1.1162035465240479
1772884861411550200,1.67355029296875,1.246165156364441,1.5693128108978271,1.2255483865737915
1772884861428156000,1.690156005859375,1.5771013498306274,1.356731653213501,1.2589932680130005
1772884861444761900,1.706761962890625,1.8834502696990967,0.8668177723884583,1.2049317359924316
1772884861461365000,1.723364990234375,1.8542814254760742,0.2096794992685318,1.0367910861968994
1772884861477977900,1.739977783203125,1.4062118530273438,-0.5737552046775818,0.7134906053543091
1772884861494582800,1.756582763671875,0.911410927772522,-1.0561859607696533,0.22296582162380219
1772884861511207200,1.773207275390625,0.4859432876110077,-1.0204503536224365,-0.3032945990562439
1772884861527774000,1.78977392578125,0.038179077208042145,-0.37079519033432007,-0.423329621553421
1772884861544420600,1.806420654296875,-0.36193767189979553,1.2530373334884644,0.6013968586921692
1772884861561014800,1.823014892578125,-0.18585574626922607,2.696359157562256,2.068084239959717
1772884861577630700,1.839630615234375,0.5280929803848267,3.112511157989502,2.7896687984466553
1772884861594237400,1.856237548828125,0.9647089242935181,1.9019289016723633,1.7577646970748901
1772884861610846700,1.8728466796875,0.7713701128959656,-1.6896532773971558,-0.4141666293144226
1772884861627448600,1.889448486328125,-0.18509216606616974,-5.76229190826416,-2.2296581268310547
1772884861644057900,1.906057861328125,-1.1036807298660278,-5.3348388671875,-2.1794145107269287
1772884861660635600,1.9226357421875,-1.7182111740112305,-0.1647808998823166,-0.7809911966323853
1772884861677265200,1.93926513671875,-1.5610661506652832,3.824474573135376,-0.7535023093223572
1772884861693869000,1.955869140625,-1.258840560913086,4.2366557121276855,-2.364201307296753
1772884861710473500,1.972473388671875,-1.1997393369674683,1.3086260557174683,-4.000556468963623
1772884861727081200,1.989081298828125,-0.5801692605018616,-2.761569023132324,-3.9605448246002197
1772884861743682800,2.005682861328125,0.5639813542366028,-5.165323734283447,-2.654667615890503
1772884861760288000,2.0222880859375,1.460120677947998,-5.030628204345703,-1.4315626621246338
1772884861776914400,2.03891455078125,1.3506230115890503,-3.3090569972991943,-0.685390830039978
1772884861793519900,2.055519775390625,0.8614727258682251,-1.2296717166900635,-0.0832303911447525
1772884861810131200,2.072131103515625,0.5001459121704102,0.23228150606155396,0.16325373947620392
1772884861826730000,2.08872998046875,0.484416127204895,1.0016663074493408,0.3628539443016052
1772884861843340300,2.10534033203125,0.6301075220108032,0.3904955983161926,0.5659666657447815
1772884861859929000,2.12192919921875,0.7000515460968018,-0.7203628420829773,0.9553932547569275
1772884861876541400,2.13854150390625,0.7457137703895569,-1.16293466091156,1.1696542501449585
1772884861893150500,2.155150390625,0.523511528968811,-0.6288857460021973,0.9523389339447021
1772884861909755600,2.171755615234375,-0.055283304303884506,0.5213735103607178,0.49128836393356323
1772884861926364400,2.188364501953125,-0.5592471361160278,1.6841554641723633,0.0555887371301651
1772884861942970600,2.204970703125,-0.8048149347305298,2.4223861694335938,-0.08185594528913498
1772884861959557000,2.22155712890625,-0.8407033085823059,2.446057081222534,0.15577064454555511
1772884861976185300,2.238185302734375,-0.7673994898796082,2.2536346912384033,0.6301075220108032
1772884861992791300,2.254791259765625,-0.6436992287635803,2.0749564170837402,1.0949759483337402
1772884862009415700,2.271415771484375,-0.5387831330299377,1.8637498617172241,1.5421292781829834
1772884862026004500,2.28800439453125,-0.3604104816913605,1.6901113986968994,1.732261061668396
1772884862042623700,2.304623779296875,-0.06841690838336945,1.6765196323394775,1.6131423711776733
1772884862059219000,2.321218994140625,0.09789115190505981,1.6215417385101318,1.4996742010116577
1772884862075839200,2.337839111328125,0.1440114825963974,1.448819637298584,1.6430747509002686
1772884862092456000,2.3544560546875,0.21930062770843506,1.3924673795700073,1.9607247114181519
1772884862109055000,2.371054931640625,0.2678644061088562,1.3069461584091187,2.2120957374572754
1772884862125670400,2.38767041015625,0.24908030033111572,1.125366449356079,2.2733349800109863
1772884862142298600,2.404298583984375,0.12767083942890167,0.897513747215271,2.221869707107544
1772884862158875000,2.420875,-0.144622340798378,0.9802860021591187,1.9222402572631836
1772884862175480000,2.43747998046875,-0.4486805200576782,1.3283264636993408,1.3016011714935303
1772884862192071700,2.45407177734375,-0.5600107312202454,1.679115891456604,0.5824599862098694
1772884862208696600,2.470696533203125,-0.4535674452781677,1.5138767957687378,-0.0507018156349659
1772884862225307000,2.487306884765625,-0.1869247704744339,0.7255551815032959,-0.3045163154602051
1772884862241908700,2.50390869140625,0.1667662113904953,-0.16554448008537292,-0.13469578325748444
1772884862258501600,2.520501708984375,0.6713408827781677,-0.12446379661560059,0.38637226819992065
1772884862275112400,2.537112548828125,1.1346821784973145,0.9178250432014465,1.0865765810012817
1772884862291715000,2.553715087890625,1.2719742059707642,1.9839376211166382,1.2374602556228638
1772884862308320300,2.5703203125,1.0558805465698242,1.4764612913131714,-0.0907134860754013
1772884862324932900,2.586932861328125,0.395077109336853,-1.4782938957214355,-3.1050281524658203
1772884862341542100,2.603542236328125,0.17852537333965302,-5.864917278289795,-5.388595104217529
1772884862358129200,2.620129150390625,1.2081387042999268,-6.942789077758789,-4.1274638175964355
1772884862374748000,2.636747802734375,2.3550381660461426,-4.245819091796875,-0.2871066629886627
1772884862391358000,2.65335791015625,2.493246555328369,-1.853365182876587,1.341460108757019
1772884862407953000,2.669952880859375,2.308612585067749,-0.3715587854385376,-0.2041817009449005
1772884862424571000,2.68657080078125,2.060601234436035,-0.7591527700424194,-2.926044464111328
1772884862441179000,2.703178955078125,1.4918856620788574,-2.280970811843872,-4.5268168449401855
1772884862457776600,2.719776611328125,0.793666660785675,-2.8634307384490967,-3.938858985900879
1772884862474392000,2.73639208984375,0.3094032406806946,-2.182621479034424,-2.4937045574188232
1772884862491001300,2.75300146484375,0.21884247660636902,-0.5893322229385376,-1.1953105926513672
1772884862507609900,2.76960986328125,0.3013092875480652,0.5516113042831421,-0.37140607833862305
1772884862524213800,2.7862138671875,0.2817615866661072,0.982729434967041,0.11468994617462158
1772884862540832000,2.80283203125,0.040164388716220856,0.9815077185630798,0.15012013912200928
1772884862557442000,2.819442138671875,-0.2324342280626297,0.9726501703262329,-0.168751522898674
1772884862574060500,2.836060546875,-0.3978259861469269,1.4482088088989258,-0.4521929919719696
1772884862590668500,2.85266845703125,-0.43417248129844666,2.2211060523986816,-0.5117523670196533
1772884862607264300,2.86926416015625,-0.33246341347694397,2.6610817909240723,-0.23029619455337524
1772884862623845400,2.885845458984375,-0.08475755155086517,2.526386022567749,0.3168863356113434
1772884862640470500,2.902470458984375,0.3084869384765625,1.924683690071106,0.8472700715065002
1772884862657085000,2.9190849609375,0.788016140460968,1.0045678615570068,1.395521640777588
1772884862673688000,2.93568798828125,1.1959214210510254,0.1719585657119751,1.9503400325775146
1772884862690285600,2.95228564453125,1.4010194540023804,-0.19837848842144012,2.34480619430542
1772884862706902000,2.968902099609375,1.3547463417053223,0.02886338345706463,2.4329235553741455
1772884862723532000,2.985531982421875,1.1003210544586182,0.4473060667514801,2.3104450702667236
1772884862740119000,3.002119140625,0.6675229668617249,0.6685920357704163,2.1114556789398193
1772884862756707000,3.01870703125,0.24678955972194672,0.7930558323860168,1.8132007122039795
1772884862773337600,3.035337646484375,-0.08231408894062042,0.9537133574485779,1.4785993099212646
1772884862789953000,3.051953125,-0.2597704529762268,1.229519009590149,1.165378212928772
1772884862806541000,3.068541015625,-0.36560285091400146,1.5068517923355103,1.0586295127868652
1772884862818983400,3.0809833984375,-0.4812090992927551,1.6378824710845947,1.1018482446670532
1772884862835608000,3.097608154296875,-0.5224425196647644,1.6096298694610596,1.0332785844802856
1772884862852203300,3.114203369140625,-0.6162103414535522,1.4474451541900635,0.5861251950263977
1772884862868811000,3.13081103515625,-0.8048149347305298,1.0494664907455444,-0.10064005106687546
1772884862885399600,3.147399658203125,-0.9970847964286804,0.7163922190666199,-0.4766276180744171
1772884862902021400,3.164021484375,-0.9865473508834839,0.9124799370765686,-0.011453723534941673
1772884862918627000,3.180626953125,-0.6104071140289307,1.3092368841171265,1.0899362564086914
1772884862935234300,3.197234375,-0.09773843735456467,1.3489432334899902,1.7424931526184082
1772884862951838000,3.213837890625,-0.007941247895359993,0.337503045797348,1.4019356966018677
1772884862968450800,3.230450927734375,-0.4210388660430908,-2.1594085693359375,0.34758231043815613
1772884862985051000,3.24705078125,-0.8897252082824707,-3.4406983852386475,-0.31383201479911804
1772884863001680400,3.263680419921875,-1.1003210544586182,-2.1792616844177246,0.09269879758358002
1772884863018282000,3.280281982421875,-0.9847147464752197,-0.2220495194196701,0.556345522403717
1772884863034872300,3.296872314453125,-0.8613200187683105,0.7374670505523682,0.25503623485565186
1772884863051492400,3.313492431640625,-0.9083566069602966,0.5592471361160278,-0.5181664228439331
1772884863068107300,3.330107177734375,-1.0193814039230347,-0.31780263781547546,-1.193477988243103
1772884863084699600,3.34669970703125,-0.5338962078094482,-1.403004765510559,-1.3810136318206787
1772884863101317000,3.363317138671875,0.3831652104854584,-2.1505510807037354,-1.250593900680542
1772884863117924000,3.379924072265625,0.8112290501594543,-1.8156442642211914,-1.1688905954360962
1772884863134544600,3.396544677734375,0.5265658497810364,-0.9434813857078552,-0.9570731520652771
1772884863151134500,3.413134521484375,-0.11698069423437119,-0.12660181522369385,-0.6026185750961304
1772884863167747800,3.429747802734375,-0.3436116874217987,0.3874412775039673,-0.30543261766433716
1772884863184351200,3.446351318359375,-0.0731511116027832,0.2733621895313263,0.040164388716220856
1772884863200959200,3.462959228515625,0.2938261926174164,-0.5476406812667847,0.5566509366035461
1772884863217565400,3.4795654296875,0.6088799238204956,-1.2806789875030518,1.0942124128341675
1772884863234172200,3.496172119140625,0.7032586336135864,-1.3339769840240479,1.2594513893127441
1772884863250775600,3.512775634765625,0.5145012736320496,-0.9385944604873657,1.1426234245300293
1772884863267390200,3.52939013671875,0.21059578657150269,-0.4999932050704956,0.8136724829673767
1772884863283992800,3.545992919921875,-0.04948008432984352,-0.2295326143503189,0.4219551682472229
1772884863300600300,3.562600341796875,-0.26282477378845215,0.006261368747800589,0.08307767659425735
1772884863317203200,3.579203125,-0.42577308416366577,0.07788532227277756,-0.18112154304981232
1772884863333818000,3.595818115234375,-0.6458373069763184,0.04230241850018501,-0.029016099870204926
1772884863350403800,3.61240380859375,-0.7545713186264038,0.14340060949325562,0.4622722864151001
1772884863367012400,3.629012451171875,-0.6450737118721008,0.28695395588874817,0.7437284588813782
1772884863383619000,3.645619140625,-0.483957976102829,0.5044219493865967,0.7574729323387146
1772884863400228000,3.66222802734375,-0.29596421122550964,0.8342891931533813,0.612850546836853
1772884863416834600,3.67883447265625,-0.12217304855585098,1.0531316995620728,0.375071257352829
1772884863433441800,3.69544189453125,-0.07437284290790558,0.8199338912963867,0.2704605758190155
1772884863450051000,3.712051025390625,-0.1485929638147354,0.36560285091400146,0.684779942035675
1772884863466653400,3.7286533203125,-0.18249599635601044,-0.30405816435813904,0.9486737251281738
1772884863483253000,3.7452529296875,-0.20036379992961884,-0.8730791807174683,1.2136365175247192
1772884863499883500,3.761883544921875,-0.01878410577774048,-0.7921395301818848,1.8736764192581177
1772884863516490000,3.778489990234375,0.018325956538319588,-0.16249015927314758,2.7427849769592285
1772884863533097700,3.79509765625,-0.3952298164367676,0.841619610786438,3.0057623386383057
1772884863549684700,3.811684814453125,-0.7388415336608887,1.818698525428772,2.229963541030884
1772884863566314800,3.828314697265625,-0.6377432942390442,1.9492709636688232,0.8768970370292664
1772884863582913500,3.84491357421875,-0.25732699036598206,1.0509936809539795,-0.4308127164840698
1772884863599524900,3.86152490234375,0.16050484776496887,-0.784503698348999,-1.9370536804199219
1772884863616129300,3.87812939453125,0.5700899958610535,-1.9624046087265015,-2.5949554443359375
1772884863632740600,3.89474072265625,0.7959573864936829,-1.3807082176208496,-2.6590964794158936
1772884863649336000,3.911336181640625,0.5627595782279968,-0.2893974184989929,-2.8519771099090576
1772884863665956600,3.92795654296875,0.025961773470044136,0.47968193888664246,-2.722473621368408
1772884863682551800,3.9445517578125,-0.29474249482154846,0.49693888425827026,-2.202016592025757
1772884863699166200,3.961166259765625,-0.342695415019989,-0.07788532227277756,-1.4098769426345825
1772884863715771100,3.977771240234375,-0.18585574626922607,-0.8655960559844971,-0.7383833527565002
1772884863732383000,3.994383056640625,0.058795779943466187,-1.1760683059692383,-0.4386012554168701
1772884863748982800,4.010982666015625,0.19944749772548676,-0.8952230215072632,-0.5320636034011841
1772884863765598000,4.027597900390625,0.16142113506793976,-0.1713477075099945,-0.7357872128486633
1772884863782186200,4.044186279296875,0.04077525436878204,0.3543018400669098,-0.7728972434997559
1772884863798807800,4.060807861328125,0.006872233934700489,0.3523165285587311,-0.4381431043148041
1772884863815415000,4.0774150390625,0.13820825517177582,0.08796459436416626,0.12553280591964722
1772884863832021500,4.094021484375,0.31444287300109863,-0.14737124741077423,0.48747047781944275
1772884863848608300,4.110608154296875,0.4115704596042633,-0.2102903574705124,0.508087158203125
1772884863865225200,4.12722509765625,0.3323107063770294,-0.07757988572120667,0.5752823352813721
1772884863881828600,4.14382861328125,0.1999056488275528,0.09040805697441101,0.9326385259628296
1772884863898422800,4.1604228515625,0.1745547503232956,0.10399980843067169,1.3486377000808716
1772884863915042800,4.177042724609375,0.2811507284641266,-0.21441370248794556,1.5344934463500977
1772884863931650000,4.193650146484375,0.3455969989299774,-0.4938845634460449,1.2166908979415894
1772884863948257500,4.210257568359375,0.14187344908714294,-0.6812674403190613,0.6777549982070923
1772884863964878800,4.22687890625,-0.5068654417991638,-0.1742493063211441,0.8292495608329773
1772884863981472800,4.24347265625,-0.8382598161697388,0.827111542224884,1.9627100229263306
1772884863998091300,4.26009130859375,-0.35552358627319336,1.606881022453308,3.1728341579437256
1772884864014705000,4.276704833984375,0.14309518039226532,1.4280502796173096,3.3512067794799805
1772884864031305000,4.293304931640625,0.24266621470451355,0.6478226184844971,2.1537580490112305
1772884864047912200,4.309912109375,-0.008704829961061478,0.16829337179660797,0.09728029370307922
1772884864064518100,4.32651806640625,-0.3222314119338989,-0.00366519158706069,-1.8587101697921753
1772884864081123800,4.343123779296875,-0.2356412708759308,-0.1134682223200798,-3.333338975906372
1772884864097733600,4.359733642578125,0.07987063378095627,-0.4456261992454529,-4.1638102531433105
1772884864114335700,4.376335693359375,0.4668537676334381,-0.6438519954681396,-3.7420077323913574
1772884864130951000,4.392950927734375,0.2857322096824646,-0.42500948905944824,-2.3938281536102295
1772884864147547000,4.409546875,-0.32528573274612427,-0.06994406878948212,-0.9418014883995056
1772884864164168200,4.426168212890625,-0.6427829265594482,0.39217549562454224,0.06230825558304787
1772884864180753400,4.44275341796875,-0.44180828332901,0.8068002462387085,0.6316346526145935
1772884864197357800,4.45935791015625,-0.058948494493961334,0.9699012637138367,1.0630582571029663
1772884864213976600,4.4759765625,0.18096883594989777,0.640644907951355,1.4506522417068481
1772884864230592300,4.49259228515625,0.15775595605373383,0.10583240538835526,1.688889741897583
1772884864247188700,4.509188720703125,0.003054326167330146,-0.32330042123794556,1.7172949314117432
1772884864263806700,4.525806640625,-0.16951510310173035,-0.3266601860523224,1.8049540519714355
1772884864280393000,4.54239306640625,-0.2877175211906433,-0.2028072625398636,2.0065395832061768
1772884864297015300,4.559015380859375,-0.3068070709705353,-0.09529497474431992,2.2325596809387207
1772884864313620200,4.5756201171875,-0.25274550914764404,-0.030085112899541855,2.2711970806121826
1772884864330232000,4.592232177734375,-0.19303341209888458,-0.24159720540046692,2.088853597640991
1772884864346816800,4.608816650390625,-0.17989981174468994,-0.8084801435470581,1.880243182182312
1772884864363431700,4.625431640625,-0.2525927722454071,-1.203251838684082,1.9298759698867798
1772884864380023600,4.6420234375,-0.33658674359321594,-1.277471899986267,1.9868391752243042
1772884864396643800,4.658643798828125,-0.4450153410434723,-1.0684033632278442,1.924683690071106
1772884864413250000,4.67525,-0.43676865100860596,-0.7878634333610535,1.7273741960525513
1772884864429857300,4.691857177734375,-0.24037547409534454,-0.6123924255371094,1.5351043939590454
1772884864446464300,4.70846435546875,-0.33368512988090515,-0.4069889783859253,1.2078332901000977
1772884864463088400,4.72508837890625,-0.5271766781806946,0.16951510310173035,0.3156646192073822
1772884864479681500,4.741681640625,-0.5189300179481506,0.8579602241516113,-0.37262779474258423
1772884864496299000,4.758299072265625,-0.27382034063339233,1.1116219758987427,-0.6863071322441101
1772884864512904700,4.77490478515625,0.04077525436878204,0.7582364678382874,-1.1302534341812134
1772884864529514000,4.791513916015625,0.2073887437582016,0.09453139454126358,-1.7701348066329956
1772884864546118700,4.80811865234375,0.32299500703811646,-0.4303545653820038,-2.3519840240478516
1772884864562727200,4.82472705078125,0.2635883390903473,-0.25824329257011414,-2.5529584884643555
1772884864579321900,4.84132177734375,0.11575896292924881,0.25045475363731384,-2.61603045463562
1772884864595940400,4.8579404296875,0.0354301854968071,0.4665483236312866,-2.409558057785034
1772884864612547000,4.874547119140625,0.09269879758358002,0.4291328489780426,-1.5497651100158691
1772884864629154300,4.891154296875,0.14645494520664215,0.08811730891466141,-0.535881519317627
1772884864645760800,4.9077607421875,0.12767083942890167,-0.24633140861988068,0.10094548016786575
1772884864662367700,4.92436767578125,0.06902777403593063,-0.24007004499435425,0.24755313992500305
1772884864678946800,4.94094677734375,0.01970040425658226,0.029168816283345222,0.052228979766368866
1772884864695581400,4.95758154296875,0.003817907767370343,0.27870726585388184,-0.14294247329235077
1772884864712186400,4.974186279296875,-0.01710422709584236,0.40026944875717163,-0.059406645596027374
1772884864728798500,4.990798583984375,-0.08628471940755844,0.3309362530708313,0.38469240069389343
1772884864745398000,5.00739794921875,-0.15836681425571442,0.13759739696979523,0.8327620625495911
1772884864762013400,5.024013427734375,-0.2028072625398636,-0.0024434609804302454,1.0731375217437744
1772884864778616600,5.040616455078125,-0.23625212907791138,0.0328340083360672,1.0566442012786865
1772884864795223300,5.057223388671875,-0.2606867551803589,0.1996002197265625,0.9243918061256409
1772884864811805700,5.0738056640625,-0.2298380434513092,0.37522396445274353,0.8862127661705017
1772884864828434000,5.090433837890625,-0.16844609379768372,0.4488332271575928,0.9677632451057434
1772884864845030400,5.107030517578125,-0.1359175145626068,0.3191770911216736,1.156978726387024
1772884864861637000,5.12363720703125,-0.13927727937698364,0.07437284290790558,1.455691933631897
1772884864878240800,5.14024072265625,-0.14034628868103027,-0.21074850857257843,1.7342463731765747
1772884864894854100,5.156854248046875,-0.0507018156349659,-0.6357579827308655,1.4735597372055054
1772884864911457500,5.17345751953125,0.04092797264456749,-0.5765040516853333,0.7530441284179688
1772884864928065000,5.19006494140625,-0.02626720629632473,0.01191187184303999,0.03176499158143997
1772884864944664000,5.2066640625,0.007941247895359993,0.5713117122650146,-0.4631885588169098
1772884864961293300,5.223293212890625,0.23426681756973267,0.5106833577156067,-0.6904304623603821
1772884864977873700,5.239873779296875,0.3446807265281677,-0.07177666574716568,-0.751669704914093
1772884864994509800,5.256509765625,0.2545780837535858,-0.4772384762763977,-0.807563841342926
1772884865011113000,5.273113037109375,0.12721268832683563,-0.5154175758361816,-1.0910053253173828
1772884865027720000,5.289719970703125,0.03191770985722542,-0.19532416760921478,-1.4454598426818848
1772884865044323000,5.306322998046875,-0.017867809161543846,0.09941831976175308,-1.5496124029159546
1772884865060934100,5.32293408203125,-0.059864792972803116,0.030695978552103043,-1.377806544303894
1772884865077540900,5.339540771484375,-0.11285735666751862,-0.2054034322500229,-1.11085844039917
1772884865094151700,5.356151611328125,-0.20204368233680725,-0.35811975598335266,-0.8987354636192322
1772884865110759400,5.372759521484375,-0.27809640765190125,-0.26251932978630066,-0.8914051055908203
1772884865127362300,5.3893623046875,-0.2528982162475586,-0.07635815441608429,-0.9671524167060852
1772884865143968300,5.40596826171875,-0.08384125679731369,0.05115996301174164,-0.8891143798828125
1772884865160572200,5.422572265625,0.13286319375038147,0.028405234217643738,-0.6265950202941895
1772884865177182700,5.4391826171875,0.2588541507720947,-0.056810468435287476,-0.303600013256073
1772884865193793500,5.45579345703125,0.2617557644844055,-0.05849034711718559,0.03145955875515938
1772884865210383400,5.47238330078125,0.2480112910270691,-0.0403171069920063,0.3292563557624817
1772884865227003400,5.48900341796875,0.266184538602829,0.012522737495601177,0.5835290551185608
1772884865243606000,5.50560595703125,0.30314189195632935,0.05497787147760391,0.7809911966323853
1772884865260201000,5.522200927734375,0.3491095006465912,0.12446379661560059,0.9926560521125793
1772884865276824600,5.538824462890625,0.3698789179325104,0.0705549344420433,1.0836749076843262
1772884865293433900,5.555433837890625,0.32528573274612427,-0.17073683440685272,1.0225883722305298
1772884865310063600,5.572063720703125,0.3029891550540924,-0.5821545720100403,1.1841622591018677
1772884865326628000,5.588628173828125,0.2968805134296417,-1.059393048286438,1.4089607000350952
1772884865343234800,5.60523486328125,0.24572055041790009,-1.2162326574325562,1.0633636713027954
1772884865359834400,5.62183447265625,0.12370020896196365,-0.8332201838493347,-0.051312681287527084
1772884865376449000,5.638448974609375,-0.1189660057425499,-0.15302173793315887,-0.9954048991203308
1772884865393061400,5.655061279296875,-0.18707747757434845,0.35323283076286316,-1.091310739517212
1772884865409665300,5.671665283203125,0.02886338345706463,0.4784601926803589,-1.0615310668945312
1772884865426272300,5.688272216796875,0.36071592569351196,0.44089198112487793,-1.5184582471847534
1772884865442892300,5.704892333984375,0.5372560024261475,0.35659259557724,-1.874745488166809
1772884865459498500,5.72149853515625,0.3927863538265228,0.028405234217643738,-1.903914213180542
1772884865476108300,5.7381083984375,0.26145032048225403,-0.07727445662021637,-2.071138620376587
1772884865492717800,5.7547177734375,0.24144448339939117,0.3637702465057373,-2.576935052871704
1772884865509283000,5.771282958984375,0.32360586524009705,0.8384125232696533,-2.8819096088409424
1772884865525927700,5.787927734375,0.3911064863204956,0.9718865752220154,-2.724458932876587
1772884865542517800,5.804517822265625,0.4550946056842804,0.7331910133361816,-2.3011293411254883
1772884865559129300,5.82112939453125,0.5714644193649292,0.395077109336853,-1.693013072013855
1772884865575746600,5.83774658203125,0.7857254147529602,0.1212567538022995,-1.1456778049468994
1772884865592355300,5.854355224609375,0.9717338681221008,0.015882495790719986,-0.8009970784187317
1772884865608945700,5.870945556640625,1.0045678615570068,0.048258353024721146,-0.6733261942863464
1772884865625569000,5.887569091796875,0.912327229976654,0.15103642642498016,-0.6299547553062439
1772884865642173200,5.904173095703125,0.8292495608329773,0.22510384023189545,-0.5745187401771545
1772884865658786600,5.92078662109375,0.7163922190666199,0.17501288652420044,-0.4812090992927551
1772884865675367700,5.93736767578125,0.5071708559989929,0.1362229436635971,-0.32100969552993774
1772884865691996700,5.95399658203125,0.22372940182685852,0.14706580340862274,-0.30222558975219727
1772884865708604200,5.970604248046875,-0.03344487398862839,0.23869559168815613,-0.4807509481906891
1772884865725210600,5.987210693359375,-0.2776382565498352,0.44394633173942566,-0.6018549799919128
1772884865741816800,6.00381689453125,-0.5337435007095337,0.8620835542678833,-0.38728857040405273
1772884865758424600,6.020424560546875,-0.6032294034957886,1.3687963485717773,0.14477506279945374
1772884865775035600,6.03703564453125,-0.29077184200286865,1.5053247213363647,1.038318157196045
1772884865791633200,6.053633056640625,0.098502017557621,1.214400053024292,2.048383951187134
1772884865808246800,6.070246826171875,0.1598939746618271,0.8100073337554932,2.7084238529205322
1772884865824833800,6.086833740234375,-0.1463022232055664,0.2967278063297272,2.3164010047912598
1772884865841453800,6.103453857421875,-0.49296826124191284,-0.3959933817386627,1.534340739250183
1772884865858052400,6.12005224609375,-0.5523748993873596,-1.0265589952468872,0.9822713136672974
1772884865874658800,6.136658935546875,-0.31871894001960754,-0.5728389024734497,0.9862419366836548
1772884865891263000,6.153262939453125,0.22098049521446228,-0.14233160018920898,1.0267117023468018
1772884865907873000,6.169873046875,0.817337691783905,-0.42088615894317627,1.2705997228622437
1772884865924500500,6.18650048828125,1.4275920391082764,-1.4773776531219482,1.2522737979888916
1772884865941100300,6.203100341796875,2.063197374343872,-3.483917236328125,0.5879577994346619
1772884865957707500,6.21970751953125,2.3467915058135986,-5.544365882873535,-0.3833179473876953
1772884865974314200,6.236314208984375,1.976149082183838,-6.494261264801025,-1.2750284671783447
1772884865990901000,6.25290087890625,1.3400856256484985,-4.800637245178223,-2.0586159229278564
1772884866007528400,6.269528564453125,0.49816060066223145,-0.6653849482536316,-3.0298917293548584
1772884866024138800,6.286138671875,-0.8381071090698242,2.1033618450164795,-3.791335105895996
1772884866040742100,6.3027421875,-1.6760615110397339,2.029447078704834,-2.5663976669311523
1772884866057347300,6.319347412109375,-1.3240504264831543,0.15271630883216858,0.3793473243713379
1772884866073957600,6.33595751953125,-0.5760459303855896,-1.7938058376312256,2.2852468490600586
1772884866090561500,6.3525615234375,-0.2018909603357315,-2.1711678504943848,2.4210116863250732
1772884866107169800,6.369169677734375,-0.4957171380519867,-0.9605855941772461,1.6413949728012085
1772884866123780600,6.385780517578125,-1.0790934562683105,0.7712173461914062,0.4303545653820038
1772884866140384800,6.402384765625,-1.3599387407302856,1.7348573207855225,-0.3880521357059479
1772884866156990700,6.41899072265625,-1.2038626670837402,1.7292068004608154,-0.633009135723114
1772884866173597000,6.435596923828125,-0.7762570381164551,0.9611964821815491,-0.41813725233078003
1772884866190189000,6.45218896484375,-0.3703370690345764,-0.1417207419872284,-0.10674870014190674
1772884866206811100,6.46881103515625,-0.3494149148464203,-0.4737260043621063,0.3631593883037567
1772884866223422000,6.485421875,-0.584139883518219,0.023976460099220276,0.8625417351722717
1772884866240042200,6.502042236328125,-0.7489207983016968,0.9054549932479858,0.9541715383529663
1772884866256632300,6.51863232421875,-0.7118107080459595,1.658041000366211,0.6111706495285034
1772884866273229000,6.53522900390625,-0.6023131608963013,1.9729419946670532,0.22999076545238495
1772884866289845500,6.551845458984375,-0.45463645458221436,1.7484490871429443,0.023060163483023643
1772884866306451000,6.568450927734375,-0.2509129047393799,1.3490959405899048,0.02275473065674305
1772884866323048700,6.585048583984375,-0.0959058403968811,0.9669997096061707,0.078343465924263
1772884866339646700,6.601646728515625,-0.10430523753166199,0.4787656366825104,0.13958270847797394
1772884866356260400,6.61826025390625,-0.19379699230194092,0.13729196786880493,0.32559117674827576
1772884866372867300,6.634867431640625,-0.22296582162380219,0.32971450686454773,0.5984952449798584
1772884866389474600,6.651474609375,-0.25793784856796265,0.5120577812194824,0.6458373069763184
1772884866406081000,6.6680810546875,-0.12140946835279465,0.7154759168624878,0.5493205785751343
1772884866422688300,6.684688232421875,0.011301007121801376,0.4737260043621063,0.31673362851142883
1772884866439296300,6.701296142578125,0.052839845418930054,-0.1866193264722824,0.050243668258190155
1772884866455916300,6.717916259765625,0.04108068719506264,-0.5858197808265686,0.055741455405950546
1772884866472518100,6.73451806640625,0.011759156361222267,-0.5920811295509338,0.5280929803848267
1772884866489131800,6.7511318359375,0.18845193088054657,-0.4554000496864319,1.601230502128601
1772884866505737500,6.767737548828125,0.6333145499229431,-1.0658071041107178,2.4697282314300537
1772884866522315000,6.78431494140625,0.9718865752220154,-2.1450533866882324,2.5893051624298096
1772884866538943200,6.800943115234375,0.5119050741195679,-2.3470969200134277,2.2605068683624268
1772884866555543600,6.81754345703125,-0.49953505396842957,-1.340238332748413,0.9808968901634216
1772884866572150300,6.834150390625,-0.9260717034339905,0.8521569967269897,-0.721737265586853
1772884866588760600,6.850760498046875,-0.5384777188301086,2.104736089706421,-2.36206316947937
1772884866605364200,6.8673642578125,0.16844609379768372,2.1032090187072754,-3.405879259109497
1772884866621971500,6.883971435546875,0.821461021900177,1.6059647798538208,-3.4048101902008057
1772884866638575000,6.9005751953125,1.0270172357559204,0.6484334468841553,-2.328160047531128
1772884866655199200,6.91719921875,0.6165157556533813,-0.3888157308101654,-1.2670872211456299
1772884866671805000,6.933804931640625,0.03405573591589928,-0.5035057067871094,-1.0152580738067627
1772884866688413000,6.950412841796875,-0.3851505517959595,0.11255192011594772,-1.5173892974853516
1772884866705019600,6.96701953125,-0.4738787114620209,0.7959573864936829,-2.266615390777588
1772884866721626400,6.98362646484375,-0.37048977613449097,1.0848966836929321,-2.7282769680023193
1772884866738217500,7.000217529296875,-0.26969701051712036,0.8223773241043091,-2.612670660018921
1772884866754839800,7.01683984375,-0.23671028017997742,0.2174680233001709,-1.8787161111831665
1772884866771443200,7.033443115234375,-0.29397889971733093,-0.4360050559043884,-0.7539604306221008
1772884866788058400,7.050058349609375,-0.42989641427993774,-0.9657779335975647,0.1440114825963974
1772884866804653600,7.066653564453125,-0.5314527750015259,-0.8258898258209229,0.37079519033432007
1772884866821260300,7.08326025390625,-0.5865833759307861,-0.156686931848526,-0.15424346923828125
1772884866837845800,7.099845703125,-0.6172793507575989,0.4775438904762268,-0.8127561807632446
1772884866854468000,7.116468017578125,-0.6299547553062439,0.6666067242622375,-0.8885034918785095
1772884866871071200,7.1330712890625,-0.609338104724884,0.4005748927593231,-0.41370847821235657
1772884866887681800,7.149681884765625,-0.5441282391548157,0.05100724846124649,0.14233160018920898
1772884866904289000,7.1662890625,-0.4963280260562897,-0.18325957655906677,0.5048801302909851
1772884866920893200,7.18289306640625,-0.5164865851402283,-0.25335636734962463,0.5844452977180481
1772884866937509400,7.19950927734375,-0.5499314665794373,-0.22571471333503723,0.39645153284072876
1772884866954123300,7.216123291015625,-0.5054910182952881,-0.09560041129589081,0.23426681756973267
1772884866970728700,7.232728759765625,-0.3378084897994995,-0.03741549700498581,0.24663683772087097
1772884866987318300,7.249318359375,-0.12492194026708603,-0.007941247895359993,0.6458373069763184
1772884867003929600,7.2659296875,-0.14095716178417206,-0.38835757970809937,1.4666874408721924
1772884867020527000,7.282527099609375,-0.3721696436405182,-0.8597928285598755,2.065946340560913
1772884867037137700,7.2991376953125,-0.59803706407547,-0.831845760345459,1.8373299837112427
1772884867053751000,7.3157509765625,-0.6407976150512695,-0.437226802110672,0.7241807579994202
1772884867070357500,7.332357421875,-0.5203045010566711,0.11392636597156525,-0.3833179473876953
1772884867086977300,7.348977294921875,-0.45066583156585693,0.4486805200576782,-0.6924157738685608
1772884867103586600,7.365586669921875,-0.4075998365879059,0.4285219609737396,-0.408974289894104
1772884867120195300,7.3821953125,-0.4444044530391693,0.13927727937698364,-0.12446379661560059
1772884867136767200,7.398767333984375,-0.5395467281341553,-0.23273965716362,-0.1644754707813263
1772884867153405700,7.41540576171875,-0.5326744914054871,-0.37522396445274353,-0.38408151268959045
1772884867170008600,7.432008544921875,-0.39385536313056946,-0.26908615231513977,-0.7046330571174622
1772884867186620200,7.4486201171875,-0.21868975460529327,-0.14278975129127502,-0.874453604221344
1772884867203226400,7.465226318359375,-0.09682214260101318,-0.12263119965791702,-0.7628179788589478
1772884867219837200,7.481837158203125,-0.0507018156349659,-0.18127426505088806,-0.4792237877845764
1772884867236424700,7.4984248046875,-0.052228979766368866,-0.361174076795578,-0.1973094791173935
1772884867253047300,7.51504736328125,-0.012980886735022068,-0.4265366494655609,0.02275473065674305
1772884867269654300,7.531654296875,0.09728029370307922,-0.11652254313230515,0.14248432219028473
1772884867286256600,7.548256591796875,0.2819143235683441,0.33047810196876526,0.17516560852527618
1772884867302855200,7.564855224609375,0.47189339995384216,0.6481280326843262,0.22372940182685852
1772884867319461400,7.58146142578125,0.6136141419410706,0.7689266204833984,0.33139440417289734
1772884867336055300,7.59805517578125,0.6824892163276672,0.5853615999221802,0.49235737323760986
1772884867352675000,7.614675048828125,0.6765332818031311,0.1635591685771942,0.6808093190193176
1772884867369282000,7.631281982421875,0.6682865619659424,0.060322944074869156,0.7958046793937683
1772884867385889000,7.647888916015625,0.6418666839599609,0.34147366881370544,1.1084150075912476
1772884867402495500,7.66449560546875,0.5907067060470581,0.49754974246025085,1.6398677825927734
1772884867419106000,7.68110595703125,0.5884159207344055,0.39965859055519104,2.171778678894043
1772884867435694800,7.69769482421875,0.5062545537948608,0.19364428520202637,2.4572055339813232
1772884867452334000,7.714333984375,0.3225368559360504,0.03588833287358284,2.303420066833496
1772884867468933000,7.73093310546875,0.14019356667995453,-0.025961773470044136,1.7482963800430298
1772884867485545200,7.747545166015625,0.06765332818031311,0.08857546001672745,0.912021815776825
1772884867502151400,7.7641513671875,0.03588833287358284,0.24755313992500305,-0.013591751456260681
1772884867518755800,7.780755859375,-0.022449297830462456,0.4619668424129486,-0.8174903988838196
1772884867535338000,7.797337890625,-0.0959058403968811,0.5531384944915771,-1.3161091804504395
1772884867551948000,7.813947998046875,-0.08491026610136032,0.2886338233947754,-1.4729487895965576
1772884867568565000,7.83056494140625,0.03680463135242462,-0.2174680233001709,-1.271515965461731
1772884867585174800,7.8471748046875,0.10567969083786011,-0.6829473376274109,-0.8730791807174683
1772884867601772000,7.86377197265625,0.07391469180583954,-1.0680978298187256,-0.5161811113357544
1772884867618388700,7.880388671875,-0.006108652334660292,-1.1652255058288574,-0.34804046154022217
1772884867634986500,7.896986572265625,-0.12858712673187256,-0.7583891749382019,-0.3805690407752991
1772884867651616500,7.913616455078125,-0.26679539680480957,-0.14065171778202057,-0.46929723024368286
1772884867668218600,7.930218505859375,-0.3651446998119354,0.3608686327934265,-0.5015203952789307
1772884867684822300,7.946822265625,-0.4046982228755951,0.537408709526062,-0.47739118337631226
1772884867701435400,7.963435302734375,-0.4521929919719696,0.30894508957862854,-0.34804046154022217
1772884867718045200,7.980045166015625,-0.4564690589904785,0.0377209298312664,-0.021532999351620674
1772884867734630700,7.996630615234375,-0.43050727248191833,-0.17318029701709747,0.35811975598335266
1772884867751254300,8.013254150390624,-0.4178318381309509,-0.32910364866256714,0.6882924437522888
1772884867767857400,8.029857421875,-0.38957929611206055,-0.34758231043815613,0.7770205736160278
1772884867784468500,8.046468505859375,-0.3176499307155609,-0.14324790239334106,0.5239696502685547
1772884867801075200,8.0630751953125,-0.3081815242767334,-0.038026362657547,0.057879481464624405
1772884867817663700,8.079663818359375,-0.3880521357059479,0.14034628868103027,-0.5647448897361755
1772884867834253600,8.096253662109374,-0.4280638098716736,0.4075998365879059,-1.2299771308898926
1772884867850881300,8.11288134765625,-0.3677408695220947,0.8425359129905701,-1.8345810174942017
1772884867867487700,8.12948779296875,-0.29565876722335815,1.6882787942886353,-1.9514089822769165
1772884867884089600,8.146089599609375,-0.15164729952812195,1.9555323123931885,-0.8752171993255615
1772884867900703000,8.162702880859374,0.11530081182718277,0.9321803450584412,1.049619197845459
1772884867917330200,8.179330078125,0.15531249344348907,-0.764345109462738,2.333352565765381
1772884867933913300,8.195913330078126,0.27611109614372253,-1.4019356966018677,2.573728084564209
1772884867950536700,8.21253662109375,0.5138903856277466,-1.407128095626831,2.124589204788208
1772884867967141000,8.22914111328125,0.9460775256156921,-0.840397834777832,0.5844452977180481
1772884867983752400,8.24575244140625,1.280220866203308,1.0764973163604736,-1.071763038635254
1772884868000355800,8.26235595703125,1.6468926668167114,1.5651894807815552,-1.7295122146606445
1772884868016964600,8.278964599609376,1.7498234510421753,0.7293730974197388,-1.3463469743728638
1772884868033554400,8.295554443359375,1.1690434217453003,-0.23411411046981812,-0.5833762884140015
1772884868050177800,8.312177734375,0.4888449013233185,-0.9775370955467224,-0.4612032473087311
1772884868066785500,8.32878564453125,-0.041691552847623825,-1.6172657012939453,-1.2087496519088745
1772884868083391200,8.34539111328125,-0.2970332205295563,-1.2176071405410767,-2.7371344566345215
1772884868099999200,8.361999267578126,-0.27382034063339233,0.16722436249256134,-4.079510688781738
1772884868116604200,8.378604248046875,-0.2981022298336029,1.0236574411392212,-3.826765298843384
1772884868133195500,8.395195556640624,-0.15745051205158234,0.7483099102973938,-1.798081874847412
1772884868149792500,8.41179248046875,0.08368854224681854,-0.6296493411064148,0.5422956347465515
1772884868166420200,8.428420166015625,0.24388794600963593,-1.8906279802322388,1.8779524564743042
1772884868183026200,8.445026123046874,0.20387627184391022,-1.9834794998168945,1.8901697397232056
1772884868199640800,8.461640869140625,-0.07956519722938538,-0.675616979598999,0.9414960741996765
1772884868216242400,8.478242431640625,-0.6168211698532104,1.2391401529312134,-0.13316862285137177
1772884868232837000,8.494837158203126,-1.0219775438308716,2.163532018661499,-0.7414376735687256
1772884868249460700,8.511460693359375,-1.079246163368225,1.5372424125671387,-0.45234572887420654
1772884868266061800,8.528061767578125,-0.8707883954048157,0.3404046595096588,0.33505958318710327
1772884868282686200,8.544686279296876,-0.5681046843528748,-0.5728389024734497,1.0784826278686523
1772884868299257600,8.561257568359375,-0.35659259557724,-1.0236574411392212,1.5519031286239624
1772884868315874600,8.57787451171875,-0.2574796974658966,-0.9514226317405701,1.6435329914093018
1772884868332468000,8.594468017578125,-0.2721404731273651,-0.4311181604862213,1.4312572479248047
1772884868349088300,8.611088134765625,-0.3306308090686798,0.19532416760921478,1.1288789510726929
1772884868365695000,8.627695068359374,-0.3689626157283783,0.6342308521270752,0.7841982841491699
1772884868382302200,8.64430224609375,-0.4132503271102905,0.826195240020752,0.5375614166259766
1772884868398908700,8.66090869140625,-0.4479169547557831,0.6812674403190613,0.6296493411064148
1772884868415510300,8.67751025390625,-0.3885102868080139,0.804051399230957,0.9190467596054077
1772884868432128800,8.694128662109375,-0.3101668357849121,1.2008084058761597,1.217454433441162
1772884868448743700,8.71074365234375,-0.19043724238872528,1.321606993675232,1.5893186330795288
1772884868465355800,8.727355712890626,-0.13958270847797394,1.105513334274292,1.922087550163269
1772884868481947100,8.743947021484376,-0.10201449692249298,0.7677049040794373,1.9747745990753174
1772884868498565000,8.760565185546875,-0.05971207842230797,0.5251913666725159,1.6333009004592896
1772884868515174100,8.777174072265625,-0.07620543986558914,0.49724429845809937,0.9042332768440247
1772884868531761200,8.79376123046875,-0.20128010213375092,0.7841982841491699,0.052228979766368866
1772884868548385000,8.810385009765625,-0.33658674359321594,0.9650143980979919,-0.4118759036064148
1772884868564996400,8.826996337890625,-0.23976461589336395,0.7116580009460449,0.10690141469240189
1772884868581589800,8.84358984375,0.164170041680336,-0.08521570265293121,1.2050844430923462
1772884868598205200,8.860205078125,0.41401392221450806,-1.0251846313476562,2.302809238433838
1772884868614815700,8.876815673828125,0.06765332818031311,-1.7266106605529785,3.2172744274139404
1772884868631404000,8.893404052734375,-0.6171266436576843,-2.266157388687134,2.4411702156066895
1772884868648026000,8.910026123046874,-0.9454666972160339,-1.1482739448547363,-0.19043724238872528
1772884868664633000,8.926633056640625,-0.8695666790008545,0.03894266113638878,-2.7895162105560303
1772884868681235500,8.9432353515625,-0.6107125282287598,0.3462078869342804,-3.7728564739227295
1772884868697846800,8.9598466796875,-0.3306308090686798,-0.10231992602348328,-2.7930285930633545
1772884868714457900,8.976457763671876,-0.04764748737215996,-0.755182147026062,-1.1397218704223633
1772884868731043300,8.993043212890624,-0.11988230794668198,-1.2744176387786865,0.11010845750570297
1772884868747664000,9.009663818359375,-0.3660610020160675,-1.0975720882415771,0.0806342139840126
1772884868764280800,9.02628076171875,-0.6282749176025391,-0.4590652287006378,-0.8903360962867737
1772884868780874800,9.042874755859375,-0.7415903806686401,0.025961773470044136,-1.840842366218567
1772884868797474800,9.059474853515624,-0.6901249885559082,-0.11178833991289139,-1.9642372131347656
1772884868814081500,9.07608154296875,-0.5204572081565857,-0.6333145499229431,-1.3341296911239624
1772884868830688000,9.09268798828125,-0.4179845452308655,-0.801913321018219,-0.6557638645172119
1772884868847295500,9.10929541015625,-0.43157628178596497,-0.6876815557479858,-0.2791654169559479
1772884868863901700,9.125901611328125,-0.38240164518356323,-0.5384777188301086,-0.1748601794242859
1772884868880511500,9.142511474609375,-0.2373211532831192,-0.38377609848976135,-0.17302757501602173
1772884868897111600,9.159111572265624,-0.08659014850854874,-0.19914206862449646,-0.30482175946235657
1772884868913737200,9.1757373046875,0.028405234217643738,-0.04932736977934837,-0.41859540343284607
1772884868930326500,9.192326416015625,0.1592831164598465,0.14294247329235077,-0.3017674386501312
1772884868946950400,9.208950439453124,0.2223549485206604,0.22540926933288574,-0.03756821155548096
1772884868963556900,9.225556884765625,0.1408044397830963,0.1609629988670349,0.23090706765651703
1772884868980160300,9.24216015625,0.11728613078594208,0.26481008529663086,0.48945578932762146
1772884868996771000,9.25877099609375,0.21303924918174744,0.33169981837272644,0.661719799041748
1772884869013381600,9.275381591796876,0.3147483170032501,0.2744311988353729,0.792750358581543
1772884869029968000,9.2919677734375,0.3039054572582245,0.11667526513338089,0.8087855577468872
1772884869046592000,9.308592041015626,0.24190263450145721,0.08368854224681854,0.6692028641700745
1772884869063198000,9.325197998046875,0.19532416760921478,0.08155050873756409,0.665232241153717
1772884869079801300,9.34180126953125,0.21670444309711456,0.06933320313692093,0.8567385077476501
1772884869096412400,9.358412353515625,0.19654589891433716,0.06841690838336945,0.8449793457984924
1772884869113023200,9.375023193359375,0.19914206862449646,0.12996158003807068,0.58062744140625
1772884869129609200,9.391609130859376,0.13072516024112701,0.2970332205295563,0.3530801236629486
1772884869146232600,9.408232666015625,-0.060322944074869156,0.5517640113830566,0.2857322096824646
1772884869162842400,9.42484228515625,-0.1385136991739273,0.8093964457511902,0.2909245789051056
1772884869179440000,9.441440185546876,-0.1134682223200798,0.812298059463501,0.1270599663257599
1772884869196053800,9.4580537109375,-0.15622878074645996,0.6053674817085266,-0.29565876722335815
1772884869212664800,9.474664794921875,-0.09392052888870239,0.4586070775985718,-0.6343835592269897
1772884869229267000,9.491266845703125,0.03222314268350601,0.2396118938922882,-0.8414669036865234
1772884869245874400,9.50787451171875,0.15103642642498016,0.034666601568460464,-0.926835298538208
1772884869262464300,9.52446435546875,0.2837468981742859,0.06505715101957321,-0.812908947467804
