time,seconds_elapsed,z,y,x
1772884859929382700,0.191382568359375,7.527820110321045,5.310271739959717,-0.26500511169433594
1772884859945988900,0.20798876953125,7.451249599456787,5.262415409088135,-0.37926238775253296
1772884859962589200,0.224589111328125,7.953144073486328,5.371288776397705,-0.137587308883667
1772884859979202800,0.241202880859375,8.973084449768066,5.103292465209961,0.672383189201355
1772884859995809300,0.257809326171875,9.711270332336426,5.114060401916504,0.8787640929222107
1772884860012438000,0.27443798828125,9.393025398254395,5.1188459396362305,0.47916272282600403
1772884860029042000,0.2910419921875,8.694320678710938,5.130809783935547,-0.20578274130821228
1772884860045643500,0.3076435546875,8.382058143615723,5.1290154457092285,-0.4049852192401886
1772884860062247200,0.3242470703125,8.586644172668457,5.310271739959717,-0.026919255033135414
1772884860078860300,0.3408603515625,9.044869422912598,5.315655708312988,0.5204389095306396
1772884860095458300,0.357458251953125,9.184849739074707,5.198407173156738,0.39960137009620667
1772884860112080100,0.374080078125,8.950352668762207,5.093122959136963,0.08434699475765228
1772884860128684800,0.390684814453125,8.672187805175781,5.109872817993164,-0.004785645287483931
1772884860145289200,0.407289306640625,8.481359481811523,5.088935375213623,-0.003589233849197626
1772884860161884400,0.423884521484375,8.553144454956055,5.187041282653809,0.35533416271209717
1772884860178503000,0.4405029296875,8.425128936767578,5.1290154457092285,0.32662028074264526
1772884860195089700,0.457089599609375,8.300103187561035,5.175076961517334,0.3613162338733673
1772884860211720200,0.47372021484375,8.233702659606934,5.140381336212158,0.37088751792907715
1772884860228343800,0.49034375,8.271987915039062,5.18823766708374,0.48095735907554626
1772884860244926500,0.506926513671875,8.338987350463867,5.179264545440674,0.4899304509162903
1772884860261526500,0.523526611328125,8.459824562072754,5.066203594207764,0.373878538608551
1772884860278143500,0.5401435546875,8.489136695861816,5.010570526123047,0.24885354936122894
1772884860294734000,0.556734130859375,8.248059272766113,5.084748268127441,0.16929219663143158
1772884860311344000,0.57334423828125,8.1493558883667,5.227120876312256,0.1902294009923935
1772884860327979300,0.589979248046875,8.301898002624512,5.351547718048096,0.41994038224220276
1772884860344566000,0.60656591796875,8.812167167663574,5.226522922515869,0.5736792087554932
1772884860361172200,0.623172119140625,9.129815101623535,5.102096080780029,0.42771705985069275
1772884860377780000,0.639780029296875,9.354142189025879,5.044070243835449,0.16271193325519562
1772884860394369500,0.65636962890625,9.296713829040527,5.039284706115723,0.14416755735874176
1772884860410982700,0.672982666015625,8.631509780883789,4.984847545623779,0.028115665540099144
1772884860427588000,0.689588134765625,7.510472297668457,5.0638108253479,0.010767702013254166
1772884860444192800,0.70619287109375,6.50907564163208,5.170889854431152,0.1944168359041214
1772884860460799200,0.72279931640625,5.856433391571045,5.109274387359619,0.4414757788181305
1772884860477411300,0.739411376953125,5.486144065856934,4.858626365661621,0.8291130661964417
1772884860494014500,0.756014404296875,5.209175109863281,4.459024906158447,1.3154542446136475
1772884860510621700,0.77262158203125,4.747958183288574,3.8596229553222656,1.4620146751403809
1772884860527244500,0.78924462890625,4.202992916107178,3.0412776470184326,1.3298112154006958
1772884860543835400,0.80583544921875,3.8213376998901367,2.1433708667755127,1.1341979503631592
1772884860560451000,0.822451171875,3.579662561416626,1.2460623979568481,1.119242787361145
1772884860577067800,0.83906787109375,3.355933666229248,0.5102694034576416,1.3256237506866455
1772884860593654500,0.855654541015625,3.47019100189209,0.12083754688501358,1.6522440910339355
1772884860610286800,0.872286865234375,3.9732820987701416,-0.3068794906139374,1.9663020372390747
1772884860626883800,0.8888837890625,4.584648132324219,-0.6705885529518127,2.213959217071533
1772884860643488500,0.905488525390625,5.522634506225586,-0.8111668825149536,2.513660192489624
1772884860660104400,0.9221044921875,6.129813194274902,-0.597607433795929,2.35872483253479
1772884860676699000,0.938698974609375,7.475776195526123,0.07776673883199692,2.294118642807007
1772884860693292800,0.955292724609375,10.715658187866211,1.3555340766906738,3.0837502479553223
1772884860709886000,0.971885986328125,13.05224895477295,2.228914260864258,2.9001009464263916
1772884860726525000,0.98852490234375,11.45683479309082,2.9449665546417236,0.9966106414794922
1772884860743135200,1.00513525390625,7.256833076477051,3.968496322631836,-0.9810572862625122
1772884860759734000,1.021734130859375,4.985445976257324,5.614758491516113,-1.085145115852356
1772884860776361700,1.03836181640625,4.774877548217773,7.1718878746032715,-0.981655478477478
1772884860792971000,1.054970947265625,7.057032108306885,8.290532112121582,-0.7232306599617004
1772884860809560600,1.071560546875,9.19561767578125,8.816953659057617,-1.4249259233474731
1772884860826167800,1.088167724609375,11.189436912536621,8.291728973388672,-2.444268226623535
1772884860842771000,1.10477099609375,14.755340576171875,7.332805156707764,-2.1655044555664062
1772884860859380200,1.121380126953125,18.020944595336914,7.0923261642456055,-1.7934205532073975
1772884860875985400,1.1379853515625,21.507287979125977,6.984649181365967,-1.0103694200515747
1772884860892581000,1.1545810546875,25.238895416259766,8.58066177368164,1.3046865463256836
1772884860909188400,1.171188232421875,29.850461959838867,9.68794059753418,3.659224033355713
1772884860925798100,1.187798095703125,33.45644760131836,7.7491559982299805,5.016552448272705
1772884860942400000,1.20439990234375,34.01158142089844,7.068996429443359,5.26181697845459
1772884860959007000,1.221007080078125,29.21636390686035,7.290332317352295,2.8701908588409424
1772884860975619600,1.23761962890625,20.332412719726562,7.48056173324585,-0.6221339106559753
1772884860992212200,1.254212158203125,14.545371055603027,7.247859954833984,-0.8733802437782288
1772884861008847000,1.27084716796875,19.46501350402832,4.745565414428711,1.5433706045150757
1772884861025445400,1.2874453125,23.631515502929688,4.190430641174316,4.103092670440674
1772884861042061800,1.304061767578125,15.531213760375977,4.856233596801758,3.2787652015686035
1772884861058663400,1.320663330078125,5.117051124572754,4.966901779174805,1.1048858165740967
1772884861075278600,1.337278564453125,-0.9786644577980042,4.642673969268799,-1.2215359210968018
1772884861091862500,1.353862548828125,-1.8771693706512451,3.411566972732544,-1.6701902151107788
1772884861108485000,1.370485107421875,3.1375887393951416,1.9160526990890503,-2.369492530822754
1772884861125088000,1.387087890625,9.08674430847168,0.12203395366668701,-4.491926193237305
1772884861141699000,1.403698974609375,10.039087295532227,-0.10169496387243271,-5.163711071014404
1772884861158287000,1.420287109375,4.959722995758057,0.4827519655227661,-3.7674992084503174
1772884861174919200,1.436919189453125,-0.4259224236011505,0.5150550603866577,-2.531606435775757
1772884861191504000,1.45350390625,-3.3475589752197266,-0.07657032459974289,-2.5052852630615234
1772884861208129300,1.47012939453125,-2.691925525665283,-1.0211371183395386,-3.793222188949585
1772884861224729600,1.4867294921875,-0.17706887423992157,-1.8783657550811768,-5.0811591148376465
1772884861241339600,1.503339599609375,1.5140584707260132,-1.9657038450241089,-5.043471813201904
1772884861257955000,1.519955078125,2.1613171100616455,-1.0193424224853516,-2.8689942359924316
1772884861274548200,1.53654833984375,0.8560323119163513,0.22552353143692017,-0.537188708782196
1772884861291140900,1.553140869140625,-0.6705885529518127,1.211964726448059,0.875174880027771
1772884861309844200,1.57184423828125,-1.5254244804382324,1.9010975360870361,0.885344386100769
1772884861326418700,1.588418701171875,-1.3046865463256836,1.8741782903671265,0.006580262444913387
1772884861343047400,1.60504736328125,-0.7124629616737366,1.6869399547576904,-1.368694543838501
1772884861359634200,1.62163427734375,-0.4666004180908203,1.2203395366668701,-2.3270199298858643
1772884861376259300,1.63825927734375,-0.6735795736312866,0.727418065071106,-2.462812662124634
1772884861392866800,1.65486669921875,-0.6484549641609192,0.08315058797597885,-1.9621145725250244
1772884861409474300,1.671474365234375,-0.4618147611618042,-0.4701896607875824,-1.794616937637329
1772884861426080300,1.688080322265625,-0.8482556343078613,-1.1270195245742798,-1.1868400573730469
1772884861442686000,1.70468603515625,-1.3405789136886597,-1.0348957777023315,0.6293123364448547
1772884861459289000,1.7212890625,-0.9960124492645264,-0.47676992416381836,3.1686954498291016
1772884861475902200,1.737902099609375,0.0023928226437419653,0.16091732680797577,4.938187599182129
1772884861492506600,1.754506591796875,2.7260231971740723,0.12442677468061447,5.411368370056152
1772884861509129700,1.771129638671875,7.038487911224365,0.08853443711996078,6.7351975440979
1772884861525700000,1.7877001953125,14.601601600646973,0.2967100143432617,7.390830993652344
1772884861542343000,1.804343017578125,21.224336624145508,1.089930772781372,5.392824172973633
1772884861558939000,1.82093896484375,20.595623016357422,3.775275945663452,-0.381655216217041
1772884861575554600,1.837554443359375,14.616557121276855,9.513264656066895,-2.5423741340637207
1772884861592161500,1.85416162109375,9.193224906921387,19.186250686645508,-1.8400806188583374
1772884861608771000,1.87077099609375,12.364313125610352,22.08934211730957,3.6257245540618896
1772884861625372400,1.887372314453125,26.426332473754883,16.43450355529785,11.024930000305176
1772884861641982000,1.90398193359375,45.32664108276367,7.992625713348389,16.922639846801758
1772884861658561800,1.920561767578125,44.09852600097656,4.993222713470459,13.12702465057373
1772884861675190500,1.9371904296875,27.29253578186035,6.7178497314453125,6.021538257598877
1772884861691791600,1.95379150390625,16.561323165893555,9.101698875427246,1.8861424922943115
1772884861708397800,1.970397705078125,17.825929641723633,6.3391852378845215,-1.456032633781433
1772884861725005000,1.987005126953125,26.35993194580078,-0.98703932762146,-3.3272199630737305
1772884861741607000,2.00360693359375,27.28057098388672,-3.184846878051758,-1.597209095954895
1772884861758210800,2.0202109375,22.81855583190918,-1.0348957777023315,2.912663459777832
1772884861774838300,2.03683837890625,19.368703842163086,-1.093519926071167,8.452047348022461
1772884861791444200,2.0534443359375,14.270195960998535,0.5653043389320374,7.173084259033203
1772884861808054800,2.0700546875,9.550353050231934,1.8969101905822754,3.2093734741210938
1772884861824654600,2.086654541015625,5.625525951385498,3.10528564453125,-0.5724828243255615
1772884861841264600,2.1032646484375,3.012563705444336,2.7738797664642334,-1.5230315923690796
1772884861857853200,2.119853271484375,2.252842426300049,2.438286304473877,-2.053640127182007
1772884861874467000,2.136467041015625,0.9284151792526245,2.255235433578491,-2.0333011150360107
1772884861891073800,2.15307373046875,0.004785645287483931,2.877967357635498,-0.29730820655822754
1772884861907680800,2.1696806640625,-0.3403790295124054,3.1621150970458984,0.2476571500301361
1772884861924288300,2.186288330078125,-0.0077766734175384045,2.407179594039917,-0.7836494445800781
1772884861940894700,2.202894775390625,0.6095715761184692,1.8023936748504639,-2.2845473289489746
1772884861957481500,2.2194814453125,1.4590235948562622,1.6019947528839111,-3.0035905838012695
1772884861974109200,2.236109130859375,1.825723648071289,1.3824533224105835,-3.032304525375366
1772884861990715000,2.25271484375,1.688734531402588,1.2945170402526855,-2.3784656524658203
1772884862007338800,2.2693388671875,0.7674978375434875,1.357926845550537,-1.9950158596038818
1772884862023928300,2.28592822265625,-0.8691928386688232,1.217348575592041,-2.1367905139923096
1772884862040548000,2.302548095703125,-1.6121642589569092,0.9547362327575684,-1.887937068939209
1772884862057143000,2.31914306640625,-0.7501499056816101,0.5335994362831116,-0.5545366406440735
1772884862073763300,2.335763427734375,0.42352959513664246,-0.8793623447418213,0.6011967062950134
1772884862090380000,2.352380126953125,0.6759724020957947,-1.8041882514953613,1.0815558433532715
1772884862106979000,2.36897900390625,-0.09990034252405167,-2.043470621109009,1.2562319040298462
1772884862123594500,2.385594482421875,-0.6227321028709412,-2.194218397140503,1.3818551301956177
1772884862140223200,2.40222314453125,-1.0307083129882812,-1.7072789669036865,2.0673987865448
1772884862156799000,2.418799072265625,-1.908874273300171,-0.8189435601234436,2.8217360973358154
1772884862173404000,2.43540380859375,-2.286940336227417,-0.5575276613235474,2.1828525066375732
1772884862189996000,2.45199609375,-1.5583257675170898,0.049651071429252625,0.833898663520813
1772884862206620700,2.46862060546875,0.6628118753433228,0.4426721930503845,-0.45104706287384033
1772884862223230700,2.485230712890625,4.7958149909973145,0.7836494445800781,-0.9349954724311829
1772884862239833000,2.5018330078125,9.397212982177734,0.7585247755050659,-1.5236297845840454
1772884862256427300,2.51842724609375,14.337793350219727,1.7012969255447388,-2.379662036895752
1772884862273035500,2.535035400390625,17.078771591186523,5.127220630645752,-3.566502094268799
1772884862289640200,2.55164013671875,14.30309772491455,11.897113800048828,-3.772284984588623
1772884862306246000,2.568245849609375,9.000003814697266,18.30808448791504,-3.527618885040283
1772884862322855400,2.58485546875,11.188838958740234,20.76970100402832,-2.4604198932647705
1772884862339464200,2.601464111328125,33.3308219909668,7.392625331878662,-0.9182456731796265
1772884862356054500,2.618054443359375,59.101524353027344,-3.9912281036376953,2.2743778228759766
1772884862372673000,2.634673095703125,57.67240905761719,-1.568495273590088,7.375277519226074
1772884862389282000,2.651281982421875,30.040691375732422,7.420143127441406,8.409575462341309
1772884862405877200,2.667877197265625,10.318449020385742,12.195618629455566,7.315456867218018
1772884862422494700,2.68449462890625,5.31984281539917,12.565908432006836,6.900900363922119
1772884862439103000,2.70110302734375,14.932409286499023,8.315656661987305,9.005986213684082
1772884862455700500,2.717700439453125,23.020151138305664,4.213760852813721,9.55214786529541
1772884862472316400,2.73431640625,22.91606330871582,2.248655080795288,7.220940589904785
1772884862488925400,2.750925537109375,17.44367790222168,1.9669002294540405,4.074378967285156
1772884862505532400,2.767532470703125,10.718050956726074,3.136990547180176,1.999801516532898
1772884862522137900,2.784137939453125,5.007579803466797,4.452444553375244,1.0911271572113037
1772884862538757600,2.800757568359375,0.35892340540885925,5.333003520965576,-0.251844584941864
1772884862555364900,2.81736474609375,-1.0911271572113037,5.402395248413086,-1.7509479522705078
1772884862571984600,2.833984619140625,-0.1453639715909958,4.449453830718994,-3.1507492065429688
1772884862588593200,2.85059326171875,1.3926228284835815,3.4002010822296143,-4.382454872131348
1772884862605188000,2.86718798828125,2.1278176307678223,2.32761812210083,-5.234299659729004
1772884862621769200,2.883769287109375,1.705484390258789,1.3453645706176758,-5.765506267547607
1772884862638397000,2.90039697265625,0.7998009920120239,0.7052844762802124,-6.058028697967529
1772884862655007000,2.917007080078125,0.698704183101654,0.11006984114646912,-5.128417015075684
1772884862671612400,2.9336123046875,0.841675341129303,-0.21954147517681122,-3.3302109241485596
1772884862688209700,2.950209716796875,0.646660327911377,-0.24466611444950104,-1.197009563446045
1772884862704825900,2.966825927734375,0.11485548317432404,0.03469592705368996,0.6209374666213989
1772884862721456600,2.98345654296875,-0.3170489966869354,0.5970092415809631,2.3300111293792725
1772884862738043000,3.00004296875,-1.0079765319824219,1.191625714302063,3.253640651702881
1772884862754631400,3.01663134765625,-1.2855439186096191,1.5284154415130615,3.297907829284668
1772884862771262000,3.033261962890625,-1.181456208229065,1.4937195777893066,2.6703901290893555
1772884862787877000,3.049877197265625,-0.28893333673477173,0.9750752449035645,2.022533416748047
1772884862804466000,3.0664658203125,1.0534402132034302,0.9553344249725342,2.2163519859313965
1772884862852203300,3.114203369140625,0.5886343717575073,1.7234305143356323,3.2105698585510254
1772884862868811000,3.13081103515625,3.418147087097168,2.531008243560791,3.607180118560791
1772884862885399600,3.147399658203125,10.438090324401855,2.789433002471924,2.871387243270874
1772884862902021400,3.164021484375,17.923437118530273,3.717848300933838,-0.11066804826259613
1772884862918627000,3.180626953125,22.027128219604492,6.241079807281494,-4.194618225097656
1772884862935234300,3.197234375,20.17448616027832,10.341779708862305,-4.880760192871094
1772884862951838000,3.213837890625,18.66581153869629,12.757333755493164,-3.1902308464050293
1772884862968450800,3.230450927734375,22.314865112304688,12.120842933654785,-0.1495514214038849
1772884862985051000,3.24705078125,34.051063537597656,7.832904815673828,2.554936408996582
1772884863001680400,3.263680419921875,38.73860168457031,3.656233072280884,3.3780672550201416
1772884863018282000,3.280281982421875,32.204402923583984,3.2590243816375732,1.771286964416504
1772884863034872300,3.296872314453125,22.43869400024414,4.579264163970947,0.631106972694397
1772884863051492400,3.313492431640625,15.488740921020508,4.536791801452637,0.1579262912273407
1772884863068107300,3.330107177734375,12.575479507446289,3.8697924613952637,-2.33180570602417
1772884863084699600,3.34669970703125,12.473186492919922,2.4257240295410156,-6.148955821990967
1772884863101317000,3.363317138671875,12.04786205291748,1.8346967697143555,-4.046263217926025
1772884863117924000,3.379924072265625,11.261221885681152,2.1403799057006836,0.2793620526790619
1772884863134544600,3.396544677734375,9.501300811767578,3.116053342819214,3.2709884643554688
1772884863151134500,3.413134521484375,7.0923261642456055,3.005983352661133,1.8299111127853394
1772884863167747800,3.429747802734375,4.566103935241699,2.5537400245666504,-2.372483730316162
1772884863184351200,3.446351318359375,3.001796007156372,2.0751755237579346,-4.453042984008789
1772884863200959200,3.462959228515625,2.5489542484283447,1.7491533756256104,-4.390231132507324
1772884863217565400,3.4795654296875,1.7832510471343994,1.5128620862960815,-2.87198543548584
1772884863234172200,3.496172119140625,0.5880361795425415,1.9459630250930786,-0.6520441770553589
1772884863250775600,3.512775634765625,-0.43609192967414856,2.7080769538879395,0.7890332937240601
1772884863267390200,3.52939013671875,-1.2029916048049927,3.025724172592163,0.7339983582496643
1772884863283992800,3.545992919921875,-1.1054840087890625,3.016152858734131,0.29312077164649963
1772884863300600300,3.562600341796875,-0.6364908218383789,2.778067111968994,-0.44327038526535034
1772884863317203200,3.579203125,0.7716853022575378,2.2235305309295654,-0.373878538608551
1772884863333818000,3.595818115234375,3.762713670730591,2.400599241256714,-0.5186443328857422
1772884863350403800,3.61240380859375,3.799204111099243,1.8741782903671265,-1.6223337650299072
1772884863367012400,3.629012451171875,2.4460630416870117,2.0709879398345947,-2.3497519493103027
1772884863383619000,3.645619140625,1.4530415534973145,2.4717857837677,-2.3270199298858643
1772884863400228000,3.66222802734375,0.9475577473640442,2.8348965644836426,-2.393420934677124
1772884863416834600,3.67883447265625,1.0827522277832031,3.2338998317718506,-1.7934205532073975
1772884863433441800,3.69544189453125,4.435695171356201,3.954737663269043,-0.6783652305603027
1772884863450051000,3.712051025390625,7.143173694610596,4.781457901000977,0.11126625537872314
1772884863466653400,3.7286533203125,8.986245155334473,6.542575359344482,0.21415762603282928
1772884863483253000,3.7452529296875,13.850255966186523,8.029714584350586,-0.2183450609445572
1772884863499883500,3.761883544921875,19.11027717590332,8.864211082458496,-0.5575276613235474
1772884863516490000,3.778489990234375,21.056838989257812,11.038090705871582,1.8819550275802612
1772884863533097700,3.79509765625,17.548961639404297,13.823934555053711,1.8221344947814941
1772884863549684700,3.811684814453125,12.371491432189941,15.554543495178223,-1.919043779373169
1772884863566314800,3.828314697265625,10.507482528686523,15.064613342285156,-5.288736343383789
1772884863582913500,3.84491357421875,10.016355514526367,13.99382495880127,-6.685546398162842
1772884863599524900,3.86152490234375,13.024133682250977,12.742977142333984,-5.44426965713501
1772884863616129300,3.87812939453125,19.68216323852539,8.319246292114258,-1.0474581718444824
1772884863632740600,3.89474072265625,18.85783576965332,6.425925254821777,3.5300116539001465
1772884863649336000,3.911336181640625,15.890735626220703,6.20638370513916,6.558128833770752
1772884863665956600,3.92795654296875,13.536197662353516,4.727619171142578,5.85703182220459
1772884863682551800,3.9445517578125,11.495718002319336,3.2273194789886475,3.428316593170166
1772884863699166200,3.961166259765625,8.35992431640625,2.833101987838745,1.26699960231781
1772884863715771100,3.977771240234375,5.113461971282959,2.6530420780181885,-0.34217363595962524
1772884863732383000,3.994383056640625,2.4370899200439453,2.602792739868164,-0.6532405614852905
1772884863748982800,4.010982666015625,1.150349497795105,2.5591237545013428,0.01375873014330864
1772884863765598000,4.027597900390625,1.2089736461639404,2.68953275680542,0.5599204897880554
1772884863782186200,4.044186279296875,1.999801516532898,2.420340061187744,-0.02512463741004467
1772884863798807800,4.060807861328125,3.084348440170288,1.867598056793213,-1.1784651279449463
1772884863815415000,4.0774150390625,2.757728099822998,1.4386845827102661,-1.8592232465744019
1772884863832021500,4.094021484375,1.4315061569213867,1.5236297845840454,-1.7359927892684937
1772884863848608300,4.110608154296875,1.5601203441619873,1.7018951177597046,-0.511465847492218
1772884863865225200,4.12722509765625,3.4205398559570312,2.0781664848327637,0.42831525206565857
1772884863881828600,4.14382861328125,4.646263599395752,2.0159530639648438,0.2871387302875519
1772884863898422800,4.1604228515625,4.027718544006348,2.345564365386963,-0.4342973232269287
1772884863915042800,4.177042724609375,3.1926236152648926,2.9724838733673096,-0.4103690981864929
1772884863931650000,4.193650146484375,4.161118507385254,3.6394832134246826,1.8418751955032349
1772884863948257500,4.210257568359375,10.222736358642578,5.987440586090088,4.794618606567383
1772884863964878800,4.22687890625,18.560527801513672,6.796214580535889,5.270191669464111
1772884863981472800,4.24347265625,22.840688705444336,5.203192710876465,0.906281590461731
1772884863998091300,4.26009130859375,18.670597076416016,6.0263237953186035,-2.8809585571289062
1772884864014705000,4.276704833984375,10.774282455444336,8.338987350463867,-2.895913600921631
1772884864031305000,4.293304931640625,3.545564889907837,10.658828735351562,-1.8239290714263916
1772884864047912200,4.309912109375,2.4329023361206055,12.503096580505371,-1.2161520719528198
1772884864064518100,4.32651806640625,5.492125988006592,10.412965774536133,-1.975873351097107
1772884864081123800,4.343123779296875,9.497711181640625,7.801798343658447,-2.1373889446258545
1772884864097733600,4.359733642578125,15.509079933166504,5.580062389373779,-1.0013962984085083
1772884864114335700,4.376335693359375,20.23430633544922,4.268795490264893,2.874976396560669
1772884864130951000,4.392950927734375,20.415563583374023,4.673182487487793,6.93739128112793
1772884864147547000,4.409546875,17.015960693359375,4.706682205200195,5.980860233306885
1772884864164168200,4.426168212890625,12.132806777954102,3.635295867919922,1.8011972904205322
1772884864180753400,4.44275341796875,8.420941352844238,2.8151557445526123,-1.1682956218719482
1772884864197357800,4.45935791015625,5.700301647186279,2.719442844390869,-1.8616160154342651
1772884864213976600,4.4759765625,3.4606196880340576,2.775076150894165,-1.0354939699172974
1772884864230592300,4.49259228515625,1.6289139986038208,2.748156785964966,-0.21176479756832123
1772884864247188700,4.509188720703125,1.4404792785644531,2.746960401535034,0.27696922421455383
1772884864263806700,4.525806640625,2.172683000564575,2.431107759475708,0.08853443711996078
1772884864280393000,4.54239306640625,2.461616277694702,2.128415822982788,-0.5180460810661316
1772884864297015300,4.559015380859375,1.82273268699646,1.5284154415130615,-1.144965648651123
1772884864313620200,4.5756201171875,0.729810893535614,1.4811571836471558,-1.5409778356552124
1772884864330232000,4.592232177734375,0.15553347766399384,1.705484390258789,-1.6319050788879395
1772884864346816800,4.608816650390625,2.0554347038269043,1.8939191102981567,-1.0959128141403198
1772884864363431700,4.625431640625,4.219144344329834,2.1678972244262695,-0.15912270545959473
1772884864380023600,4.6420234375,5.362913608551025,3.2213375568389893,0.7268198728561401
1772884864396643800,4.658643798828125,6.218348026275635,5.876173973083496,0.19621145725250244
1772884864413250000,4.67525,6.728617191314697,8.497511863708496,-1.3555340766906738
1772884864429857300,4.691857177734375,7.645666599273682,11.280364036560059,-1.5655041933059692
1772884864446464300,4.70846435546875,6.637091636657715,13.101900100708008,0.20458634197711945
1772884864463088400,4.72508837890625,7.115057945251465,13.004392623901367,-0.16271193325519562
1772884864479681500,4.741681640625,9.3457670211792,13.133605003356934,-1.9010975360870361
1772884864496299000,4.758299072265625,9.366106033325195,13.94836139678955,-3.7459638118743896
1772884864512904700,4.77490478515625,7.855038642883301,14.35274887084961,-3.1316065788269043
1772884864529514000,4.791513916015625,8.153543472290039,13.96271800994873,-1.820937991142273
1772884864546118700,4.80811865234375,10.841879844665527,12.41994571685791,0.1950150430202484
1772884864562727200,4.82472705078125,12.011969566345215,9.881160736083984,2.08713960647583
1772884864579321900,4.84132177734375,11.240882873535156,7.8819580078125,2.0721843242645264
1772884864595940400,4.8579404296875,12.142976760864258,5.909075736999512,1.0959128141403198
1772884864612547000,4.874547119140625,11.911471366882324,4.546961307525635,0.5659025311470032
1772884864629154300,4.891154296875,9.038289070129395,4.383052825927734,0.4372883439064026
1772884864645760800,4.9077607421875,5.676373481750488,4.219144344329834,0.27816563844680786
1772884864662367700,4.92436767578125,2.923431158065796,3.9284164905548096,-0.019142581149935722
1772884864678946800,4.94094677734375,1.856830358505249,3.5365917682647705,-0.35114672780036926
1772884864695581400,4.95758154296875,2.4777679443359375,3.0652058124542236,-0.4247260093688965
1772884864712186400,4.974186279296875,4.289134502410889,2.7906293869018555,-0.0975075215101242
1772884864728798500,4.990798583984375,4.849653244018555,2.5698914527893066,0.0891326442360878
1772884864745398000,5.00739794921875,4.1036906242370605,2.510071039199829,-0.0077766734175384045
1772884864762013400,5.024013427734375,3.0891339778900146,2.7433712482452393,-0.04785645380616188
1772884864778616600,5.040616455078125,2.571686029434204,3.0586254596710205,-0.038285162299871445
1772884864795223300,5.057223388671875,3.326023578643799,3.576073408126831,-0.2584248483181
1772884864811805700,5.0738056640625,4.591826438903809,3.9110686779022217,-0.3684946894645691
1772884864828434000,5.090433837890625,5.580660820007324,4.960919380187988,-0.4618147611618042
1772884864845030400,5.107030517578125,6.589833736419678,6.404987812042236,-0.7585247755050659
1772884864861637000,5.12363720703125,7.696514129638672,8.389236450195312,-1.414756417274475
1772884864878240800,5.14024072265625,6.686742782592773,9.675976753234863,-2.160120725631714
1772884864894854100,5.156854248046875,4.862813949584961,9.253643035888672,-2.042872428894043
1772884864911457500,5.17345751953125,5.54596471786499,9.795618057250977,-1.3298112154006958
1772884864928065000,5.19006494140625,7.472784996032715,10.691131591796875,-1.1383854150772095
1772884864944664000,5.2066640625,8.992227554321289,10.866405487060547,-2.489732027053833
1772884864961293300,5.223293212890625,9.881160736083984,11.652447700500488,-2.5986053943634033
1772884864977873700,5.239873779296875,10.491929054260254,12.263813972473145,-1.0719845294952393
1772884864994509800,5.256509765625,9.882955551147461,12.4540433883667,0.03290131315588951
1772884865011113000,5.273113037109375,9.044271469116211,11.745768547058105,0.711864709854126
1772884865027720000,5.289719970703125,9.034700393676758,10.162318229675293,1.231107234954834
1772884865044323000,5.306322998046875,9.08853816986084,8.526823043823242,1.1515458822250366
1772884865060934100,5.32293408203125,8.412566184997559,7.281957626342773,0.9499505758285522
1772884865077540900,5.339540771484375,7.308278560638428,6.160920143127441,0.7950153350830078
1772884865094151700,5.356151611328125,5.732006549835205,5.131408214569092,0.5186443328857422
1772884865110759400,5.372759521484375,4.383052825927734,4.108476638793945,-0.20338992774486542
1772884865127362300,5.3893623046875,4.122235298156738,3.1142587661743164,-1.275374412536621
1772884865143968300,5.40596826171875,4.667200565338135,2.4221346378326416,-1.933998942375183
1772884865160572200,5.422572265625,4.903491973876953,2.131406784057617,-1.7509479522705078
1772884865177182700,5.4391826171875,4.971687316894531,2.114656925201416,-0.8237292170524597
1772884865193793500,5.45579345703125,4.8777689933776855,2.2097716331481934,-0.30628129839897156
1772884865210383400,5.47238330078125,4.553541660308838,2.1302103996276855,-0.3762713670730591
1772884865227003400,5.48900341796875,4.043870449066162,2.1744775772094727,-0.5838487148284912
1772884865243606000,5.50560595703125,3.8434712886810303,2.355135679244995,-0.7058826684951782
1772884865260201000,5.522200927734375,3.782454490661621,3.2506494522094727,-0.8901300430297852
1772884865276824600,5.538824462890625,3.3822548389434814,4.672584533691406,-0.8679963946342468
1772884865293433900,5.555433837890625,4.421338081359863,6.106483459472656,-1.059422254562378
1772884865310063600,5.572063720703125,6.565307140350342,7.223931789398193,-1.445863127708435
1772884865326628000,5.588628173828125,7.549355506896973,8.893523216247559,-1.252044439315796
1772884865343234800,5.60523486328125,7.481758117675781,9.849455833435059,-0.029910283163189888
1772884865359834400,5.62183447265625,9.872786521911621,10.338190078735352,1.9160526990890503
1772884865376449000,5.638448974609375,15.254842758178711,9.164510726928711,2.6949164867401123
1772884865393061400,5.655061279296875,17.477176666259766,7.469794273376465,1.048654556274414
1772884865409665300,5.671665283203125,14.458032608032227,7.2335028648376465,-0.3517449200153351
1772884865426272300,5.688272216796875,11.693724632263184,7.75753116607666,-0.8344969153404236
1772884865442892300,5.704892333984375,11.218749046325684,7.5774712562561035,0.6783652305603027
1772884865459498500,5.72149853515625,9.794421195983887,6.15553617477417,1.2544373273849487
1772884865476108300,5.7381083984375,7.797012805938721,4.35673189163208,0.836291491985321
1772884865492717800,5.7547177734375,7.049853801727295,2.627917528152466,0.06281159073114395
1772884865509283000,5.771282958984375,8.136195182800293,1.3668999671936035,-0.5653043389320374
1772884865525927700,5.787927734375,8.508877754211426,0.5359922647476196,-0.8554341197013855
1772884865542517800,5.804517822265625,8.360522270202637,-0.03768695518374443,-1.1264212131500244
1772884865559129300,5.82112939453125,7.594819068908691,-0.4307080805301666,-1.5128620862960815
1772884865575746600,5.83774658203125,5.839683532714844,-0.46420758962631226,-1.4554343223571777
1772884865592355300,5.854355224609375,4.053441524505615,-0.13100704550743103,-0.7010970115661621
1772884865608945700,5.870945556640625,2.953341245651245,0.45643091201782227,0.3326023519039154
1772884865625569000,5.887569091796875,2.626721143722534,0.857228696346283,0.6245267391204834
1772884865642173200,5.904173095703125,2.626721143722534,1.1629117727279663,0.7369893789291382
1772884865658786600,5.92078662109375,3.421138286590576,1.828116536140442,1.1868400573730469
1772884865675367700,5.93736767578125,3.7734813690185547,2.6117658615112305,1.7982062101364136
1772884865691996700,5.95399658203125,3.754936933517456,3.4091739654541016,1.9860427379608154
1772884865708604200,5.970604248046875,4.834099769592285,3.8315072059631348,2.073380708694458
1772884865725210600,5.987210693359375,8.471190452575684,4.423132419586182,2.4400808811187744
1772884865741816800,6.00381689453125,12.43131160736084,5.509474277496338,2.3682961463928223
1772884865758424600,6.020424560546875,16.214365005493164,7.194619655609131,0.2835494875907898
1772884865775035600,6.03703564453125,19.326828002929688,9.394221305847168,-1.8556339740753174
1772884865791633200,6.053633056640625,20.688344955444336,12.765110969543457,-2.66560435295105
1772884865808246800,6.070246826171875,18.751354217529297,17.480167388916016,-1.3334003686904907
1772884865824833800,6.086833740234375,17.473587036132812,20.842681884765625,-0.4265206456184387
1772884865841453800,6.103453857421875,20.791833877563477,19.386051177978516,0.0849452018737793
1772884865858052400,6.12005224609375,26.4658145904541,17.277973175048828,-0.2829512655735016
1772884865874658800,6.136658935546875,28.2388973236084,15.850655555725098,-1.8915263414382935
1772884865891263000,6.153262939453125,24.486352920532227,16.186248779296875,-4.001397609710693
1772884865907873000,6.169873046875,17.84746551513672,15.02453327178955,-4.7611188888549805
1772884865924500500,6.18650048828125,7.398009300231934,12.121440887451172,-4.106681823730469
1772884865941100300,6.203100341796875,-0.5856433510780334,7.785048484802246,0.6604190468788147
1772884865957707500,6.21970751953125,-1.8574285507202148,4.800002098083496,7.63310432434082
1772884865974314200,6.236314208984375,2.6668007373809814,1.6163517236709595,12.663415908813477
1772884865990901000,6.25290087890625,7.430910587310791,-0.7393822073936462,14.426925659179688
1772884866007528400,6.269528564453125,10.569097518920898,0.01615155301988125,12.80758285522461
1772884866024138800,6.286138671875,14.32582950592041,1.0133603811264038,7.585247993469238
1772884866040742100,6.3027421875,21.715463638305664,-2.1403799057006836,-1.3992030620574951
1772884866057347300,6.319347412109375,18.99542236328125,-3.050250768661499,-7.292725086212158
1772884866073957600,6.33595751953125,9.226723670959473,-1.973480463027954,-6.708278179168701
1772884866090561500,6.3525615234375,3.1728827953338623,-1.740180253982544,-1.7365909814834595
1772884866107169800,6.369169677734375,-0.4342973232269287,-1.1700903177261353,2.252842426300049
1772884866123780600,6.385780517578125,-1.4057832956314087,-1.2693923711776733,2.018345832824707
1772884866140384800,6.402384765625,-0.2512463629245758,-1.8598214387893677,-0.9768698215484619
1772884866156990700,6.41899072265625,1.3094722032546997,-1.9196419715881348,-3.3056845664978027
1772884866173597000,6.435596923828125,2.131406784057617,-1.6552350521087646,-4.145565032958984
1772884866190189000,6.45218896484375,3.229114055633545,-1.174277663230896,-1.7563318014144897
1772884866206811100,6.46881103515625,4.962714195251465,-0.24227328598499298,1.2299108505249023
1772884866223422000,6.485421875,4.081557273864746,0.15134602785110474,2.256431818008423
1772884866240042200,6.502042236328125,1.2502498626708984,0.28594231605529785,1.4171491861343384
1772884866256632300,6.51863232421875,-0.34636107087135315,0.5515456199645996,0.17527425289154053
1772884866273229000,6.53522900390625,-0.49651068449020386,0.9511470198631287,-0.3517449200153351
1772884866285744400,6.547744384765625,0.014356935396790504,0.997208833694458,-1.1868400573730469
1772884866302300700,6.56430078125,0.4731806814670563,0.914058268070221,-1.4530415534973145
1772884866318892500,6.580892578125,0.605384111404419,1.0923235416412354,-0.8153542876243591
1772884866335499800,6.597499755859375,0.9326026439666748,1.4889339208602905,0.14835500717163086
1772884866352110600,6.614110595703125,2.595614433288574,1.5122638940811157,0.6017948985099792
1772884866368715800,6.6307158203125,2.4837498664855957,1.5601203441619873,1.2083754539489746
1772884866385322800,6.64732275390625,2.0452651977539062,1.8011972904205322,0.5048855543136597
1772884866401929500,6.663929443359375,1.537388563156128,2.0548365116119385,-0.01615155301988125
1772884866418536700,6.68053662109375,1.4590235948562622,2.4813570976257324,0.23449662327766418
1772884866435156700,6.69715673828125,3.656233072280884,3.4953157901763916,0.6807580590248108
1772884866451751400,6.71375146484375,7.750950813293457,4.088137626647949,1.2628121376037598
1772884866468371000,6.730370849609375,12.17228889465332,4.463810443878174,1.144965648651123
1772884866484978200,6.746978271484375,14.189437866210938,5.91804838180542,-0.8733802437782288
1772884866501584600,6.763584716796875,11.155937194824219,7.901698589324951,-2.754138946533203
1772884866518185200,6.780185302734375,7.973483085632324,10.454840660095215,-1.5451651811599731
1772884866534789600,6.79678955078125,6.611967086791992,14.306686401367188,3.178266763687134
1772884866551390000,6.813389892578125,4.621138572692871,12.18784236907959,5.693721294403076
1772884866567998700,6.829998779296875,4.385445594787598,9.315258979797363,2.1583259105682373
1772884866584605700,6.846605712890625,5.796014785766602,8.836095809936523,-2.4640090465545654
1772884866601212400,6.86321240234375,10.869397163391113,8.220541954040527,-3.6568312644958496
1772884866617819100,6.879819091796875,16.916658401489258,8.961718559265137,-2.338984251022339
1772884866634439400,6.896439453125,20.021345138549805,10.941780090332031,1.017547845840454
1772884866651034400,6.913034423828125,18.37687873840332,11.123634338378906,4.517050743103027
1772884866667654100,6.929654052734375,14.673386573791504,9.571290969848633,5.260022163391113
1772884866684261000,6.94626123046875,12.088540077209473,8.045866012573242,3.5539398193359375
1772884866700867300,6.962867431640625,11.252248764038086,6.295516490936279,0.9505487680435181
1772884866717474800,6.979474853515625,12.273386001586914,4.798207759857178,-0.15672987699508667
1772884866734077400,6.996077392578125,13.861621856689453,3.7842490673065186,-0.1256231814622879
1772884866750691800,7.01269189453125,14.732010841369629,3.0239295959472656,0.7896314859390259
1772884866767295500,7.02929541015625,13.436297416687012,2.7798616886138916,1.8131613731384277
1772884866783902000,7.04590185546875,9.983454704284668,2.957528829574585,2.2707886695861816
1772884866800509000,7.062509033203125,5.709274768829346,2.8863422870635986,1.92741858959198
1772884866817099000,7.07909912109375,2.7086751461029053,3.053241729736328,1.31365966796875
1772884866833706200,7.095706298828125,2.833700180053711,2.4945175647735596,0.7250252366065979
1772884866850319400,7.1123193359375,5.212165832519531,1.9232312440872192,-0.1010967567563057
1772884866866923300,7.12892333984375,6.68016242980957,1.7599210739135742,-0.7417750358581543
1772884866883530000,7.145530029296875,6.61794900894165,1.794616937637329,-0.8727820515632629
1772884866900136700,7.16213671875,5.886941909790039,2.1613171100616455,-0.5204389095306396
1772884866916744000,7.178743896484375,5.462215900421143,2.6943182945251465,-0.01375873014330864
1772884866933364200,7.1953642578125,6.002993583679199,3.218346357345581,-0.07537391036748886
1772884866949971000,7.211970947265625,8.429315567016602,3.8572301864624023,-0.8051848411560059
1772884866966578200,7.228578125,11.467004776000977,4.788636207580566,-1.5601203441619873
1772884866983155200,7.2451552734375,15.306886672973633,5.840879917144775,-1.1802598237991333
1772884866999778300,7.2617783203125,17.714065551757812,6.721438884735107,0.0023928226437419653
1772884867016382200,7.27838232421875,16.56311798095703,5.974279880523682,1.0492527484893799
1772884867032994300,7.294994384765625,13.595419883728027,5.570491313934326,1.1617153882980347
1772884867049600500,7.3116005859375,12.016157150268555,5.0811591148376465,0.6897311210632324
1772884867066206000,7.3282060546875,13.904093742370605,4.310669898986816,0.8913264274597168
1772884867082816300,7.344816162109375,15.669997215270996,4.040280818939209,0.7513462901115417
1772884867099434000,7.36143408203125,15.175281524658203,4.400999069213867,0.43130627274513245
1772884867116040200,7.378040283203125,12.000005722045898,5.455037593841553,0.3601198196411133
1772884867132639700,7.3946396484375,9.406784057617188,5.912664890289307,0.3487538993358612
1772884867149235500,7.4112353515625,7.8382887840271,5.444868087768555,-0.20338992774486542
1772884867165861000,7.427861083984375,6.992425918579102,4.727619171142578,-0.5700899958610535
1772884867182467800,7.4444677734375,7.112067222595215,3.889533281326294,-0.39182472229003906
1772884867199070500,7.461070556640625,7.256234645843506,3.10109806060791,0.004187439568340778
1772884867215682300,7.477682373046875,6.670591354370117,2.6524438858032227,0.19621145725250244
1772884867232284700,7.49428466796875,5.607579708099365,2.526820659637451,0.017946170642971992
1772884867248899800,7.51089990234375,4.8813581466674805,2.0033907890319824,-0.2667997181415558
1772884867265503000,7.5275029296875,4.129413604736328,1.7204394340515137,-0.6209374666213989
1772884867282109400,7.544109375,3.6783666610717773,1.9178473949432373,-1.0977073907852173
1772884867298713000,7.560713134765625,3.772284984588623,2.3371894359588623,-1.1778669357299805
1772884867315299800,7.5772998046875,4.532604217529297,2.7828526496887207,-0.8404789566993713
1772884867331913500,7.59391357421875,5.597410202026367,3.4444682598114014,-0.5958128571510315
1772884867348526600,7.610526611328125,7.252645492553711,3.9248273372650146,-0.12801600992679596
1772884867365130200,7.627130126953125,9.642477035522461,3.8327035903930664,0.41096729040145874
1772884867381737200,7.6437373046875,12.588041305541992,4.371088981628418,0.5635097622871399
1772884867398344200,7.66034423828125,14.008780479431152,4.549354076385498,0.35533416271209717
1772884867414951000,7.676950927734375,13.59482192993164,5.00578498840332,0.32183465361595154
1772884867431569000,7.69356884765625,12.321840286254883,6.242276191711426,0.4061816334724426
1772884867448184800,7.710184814453125,10.657033920288086,7.29392147064209,0.3403790295124054
1772884867464785400,7.726785400390625,9.181260108947754,7.603193759918213,0.10767702013254166
1772884867481392000,7.74339208984375,8.477770805358887,7.957331657409668,-0.5162515044212341
1772884867497999000,7.7599990234375,8.84506893157959,8.37129020690918,-0.7046862840652466
1772884867514606000,7.776606201171875,10.039685249328613,8.09252643585205,-0.5318048596382141
1772884867531182800,7.793182861328125,11.341979026794434,7.615756034851074,-0.6993024349212646
1772884867547800800,7.80980078125,11.827722549438477,6.941578388214111,-1.4518451690673828
1772884867564416300,7.826416259765625,11.898908615112305,5.886941909790039,-1.3052847385406494
1772884867581020400,7.8430205078125,10.507482528686523,4.634299278259277,-0.24107688665390015
1772884867597627100,7.859627197265625,7.843074321746826,3.741178274154663,0.7591229677200317
1772884867614233900,7.87623388671875,5.457430362701416,2.994617462158203,1.3525429964065552
1772884867630839300,7.89283935546875,3.954737663269043,2.3611178398132324,1.5427724123001099
1772884867647466000,7.909466064453125,3.0562326908111572,1.8149559497833252,1.0929217338562012
1772884867664068400,7.926068359375,2.541177749633789,1.4362918138504028,0.24945175647735596
1772884867680675000,7.942675048828125,2.1098713874816895,1.262213945388794,-0.5473581552505493
1772884867697265200,7.95926513671875,2.431705951690674,1.2490534782409668,-0.7154539823532104
1772884867713888800,7.975888671875,2.8701908588409424,0.8757730722427368,-0.7962117195129395
1772884867730480400,7.99248046875,2.8791637420654297,0.9529415965080261,-0.6586244106292725
1772884867747107000,8.009107177734375,2.1583259105682373,1.1300104856491089,-0.41994038224220276
1772884867763710000,8.0257099609375,0.7728816866874695,1.3286148309707642,-0.4701896607875824
1772884867780316400,8.04231640625,-0.21954147517681122,1.6031911373138428,-0.4325026869773865
1772884867834253600,8.096253662109374,4.2831525802612305,2.9276185035705566,0.10887342691421509
1772884867850881300,8.11288134765625,8.471190452575684,2.947359323501587,0.31046873331069946
1772884867867487700,8.12948779296875,13.114462852478027,3.160320520401001,-0.3122633695602417
1772884867884089600,8.146089599609375,19.34776496887207,4.503890514373779,-1.8388842344284058
1772884867900703000,8.162702880859374,20.233110427856445,4.881956577301025,-3.610769271850586
1772884867917330200,8.179330078125,19.673189163208008,7.258029460906982,-4.058825492858887
1772884867933913300,8.195913330078126,18.831514358520508,8.461020469665527,-4.23649263381958
1772884867950536700,8.21253662109375,18.469600677490234,8.10389232635498,-2.008176326751709
1772884867967141000,8.22914111328125,19.08455467224121,10.872387886047363,-0.9487541913986206
1772884867983752400,8.24575244140625,21.729223251342773,11.386246681213379,-1.179661512374878
1772884868000355800,8.26235595703125,24.266212463378906,12.128620147705078,-2.585444927215576
1772884868016964600,8.278964599609376,25.40399932861328,10.917851448059082,1.8855443000793457
1772884868033554400,8.295554443359375,20.621944427490234,9.257830619812012,4.870590686798096
1772884868050177800,8.312177734375,12.227921485900879,7.112067222595215,5.117051124572754
1772884868066785500,8.32878564453125,6.55693244934082,5.057828903198242,4.201198577880859
1772884868083391200,8.34539111328125,5.348556995391846,2.5459632873535156,3.1663026809692383
1772884868099999200,8.361999267578126,10.824531555175781,1.7772690057754517,1.9627127647399902
1772884868116604200,8.378604248046875,18.616159439086914,1.730010747909546,0.5312066078186035
1772884868133195500,8.395195556640624,20.504695892333984,1.908276081085205,-0.6975077986717224
1772884868149792500,8.41179248046875,15.113665580749512,3.160320520401001,-1.160519003868103
1772884868166420200,8.428420166015625,7.063014030456543,3.3990044593811035,-0.05144568532705307
1772884868183026200,8.445026123046874,0.9846464991569519,3.9110686779022217,1.2921242713928223
1772884868199640800,8.461640869140625,-1.0827522277832031,3.9948174953460693,2.973680257797241
1772884868216242400,8.478242431640625,-0.25304099917411804,2.390429735183716,3.029313564300537
1772884868232837000,8.494837158203126,1.710868239402771,1.592423439025879,0.20458634197711945
1772884868249460700,8.511460693359375,4.593621253967285,0.9343972206115723,-2.073979139328003
1772884868266061800,8.528061767578125,5.251049518585205,0.07657032459974289,-2.8492536544799805
1772884868282686200,8.544686279296876,4.504488468170166,0.09092725813388824,-2.069791555404663
1772884868299257600,8.561257568359375,2.9180471897125244,0.5401797294616699,-1.1826525926589966
1772884868315874600,8.57787451171875,1.2915260791778564,1.2867404222488403,-0.3690928816795349
1772884868332468000,8.594468017578125,0.23330020904541016,1.740180253982544,0.12801600992679596
1772884868349088300,8.611088134765625,-0.4588237404823303,1.9196419715881348,0.09032905846834183
1772884868365695000,8.627695068359374,-0.656829833984375,1.9142581224441528,-0.14775680005550385
1772884868382302200,8.64430224609375,0.5982056856155396,1.6211373805999756,-0.09990034252405167
1772884868398908700,8.66090869140625,2.5046870708465576,1.3537393808364868,-0.5856433510780334
1772884868415510300,8.67751025390625,3.510270833969116,0.5700899958610535,-0.511465847492218
1772884868432128800,8.694128662109375,3.779463291168213,0.19202402234077454,-0.7262216806411743
1772884868448743700,8.71074365234375,3.7561333179473877,0.18125630915164948,-0.6640082597732544
1772884868465355800,8.727355712890626,2.6297121047973633,0.39122650027275085,-0.3164508044719696
1772884868481947100,8.743947021484376,1.0211371183395386,0.9385846853256226,-0.3320041298866272
1772884868498565000,8.760565185546875,0.06819544732570648,1.80717933177948,-0.12861421704292297
1772884868515174100,8.777174072265625,0.8476574420928955,2.9940192699432373,0.30149564146995544
1772884868531761200,8.79376123046875,3.7334015369415283,4.057629108428955,0.4983053207397461
1772884868548385000,8.810385009765625,9.114859580993652,4.450051784515381,-0.05503492057323456
1772884868564996400,8.826996337890625,13.656436920166016,4.234099864959717,-2.1535403728485107
1772884868581589800,8.84358984375,15.195021629333496,5.461019515991211,-3.291327476501465
1772884868598205200,8.860205078125,14.779269218444824,9.127422332763672,-2.1379871368408203
1772884868614815700,8.876815673828125,9.879366874694824,12.114861488342285,-0.0077766734175384045
1772884868631404000,8.893404052734375,2.014756679534912,11.380264282226562,0.3900300860404968
1772884868648026000,8.910026123046874,0.364905446767807,10.974082946777344,-0.7082754969596863
1772884868664633000,8.926633056640625,5.907878875732422,9.615557670593262,-2.1655044555664062
1772884868681235500,8.9432353515625,16.05583953857422,8.414361000061035,-2.207977056503296
1772884868697846800,8.9598466796875,20.86481475830078,7.968697547912598,-2.788236618041992
1772884868714457900,8.976457763671876,20.417356491088867,10.38784122467041,-1.9357935190200806
1772884868731043300,8.993043212890624,15.868002891540527,12.768699645996094,-0.6777670383453369
1772884868747664000,9.009663818359375,10.728818893432617,12.685548782348633,-0.21415762603282928
1772884868764280800,9.02628076171875,8.735597610473633,10.568499565124512,-0.9068797826766968
1772884868780874800,9.042874755859375,10.73838996887207,7.4572319984436035,-2.227717876434326
1772884868797474800,9.059474853515624,13.912468910217285,5.024927616119385,-3.1483564376831055
1772884868814081500,9.07608154296875,15.16451358795166,4.000799655914307,-2.6703901290893555
1772884868830688000,9.09268798828125,13.99382495880127,3.8536407947540283,-1.4069796800613403
1772884868847295500,9.10929541015625,11.518449783325195,3.569493293762207,-0.9744769930839539
1772884868863901700,9.125901611328125,9.524630546569824,3.0963125228881836,-1.3058829307556152
1772884868880511500,9.142511474609375,8.281558990478516,2.71645188331604,-1.5361921787261963
1772884868897111600,9.159111572265624,7.5086774826049805,2.4329023361206055,-1.2759727239608765
1772884868913737200,9.1757373046875,8.162516593933105,2.221735715866089,-1.4530415534973145
1772884868930326500,9.192326416015625,8.61057186126709,2.1194427013397217,-1.2843475341796875
1772884868946950400,9.208950439453124,8.158329010009766,2.4873390197753906,-0.5952146053314209
1772884868963556900,9.225556884765625,7.901100158691406,2.7595226764678955,-0.3044866919517517
1772884868980160300,9.24216015625,7.679764270782471,2.688934564590454,-0.7537391185760498
1772884868996771000,9.25877099609375,7.302894592285156,2.9288148880004883,-1.3094722032546997
1772884869013381600,9.275381591796876,6.434299945831299,3.452244758605957,-0.898504912853241
1772884869029968000,9.2919677734375,5.776273727416992,4.033700942993164,-0.32662028074264526
1772884869046592000,9.308592041015626,6.072385787963867,4.328616142272949,-0.2925225794315338
1772884869063198000,9.325197998046875,7.320242881774902,4.268197536468506,-0.6586244106292725
1772884869079801300,9.34180126953125,7.289734363555908,4.579862594604492,-0.7423732280731201
1772884869096412400,9.358412353515625,6.154339790344238,5.146961688995361,-0.8081758618354797
1772884869113023200,9.375023193359375,6.005386829376221,5.271986484527588,-0.48574298620224
1772884869129609200,9.391609130859376,7.131209850311279,5.271986484527588,0.41156548261642456
1772884869146232600,9.408232666015625,8.091927528381348,5.188836097717285,0.7357929348945618
1772884869162842400,9.42484228515625,7.847859859466553,4.896313190460205,-0.07836493849754333
1772884869179440000,9.441440185546876,6.891329288482666,5.25762939453125,-0.47198426723480225
1772884869196053800,9.4580537109375,6.952346324920654,5.423930644989014,-0.8632107973098755
1772884869212664800,9.474664794921875,8.09671401977539,5.182853698730469,-1.4883357286453247
1772884869229267000,9.491266845703125,8.638688087463379,5.234897613525391,-1.8687944412231445
1772884869245874400,9.50787451171875,9.859625816345215,5.288736343383789,-1.5690934658050537
1772884869262464300,9.52446435546875,10.764710426330566,5.08654260635376,-1.3417752981185913
