time,seconds_elapsed,z,y,x
1772884846260821200,0.1368212890625,8.921639442443848,4.219144344329834,-0.06759724020957947
1772884846277433000,0.15343310546875,8.706883430480957,4.230510234832764,0.019740786403417587
1772884846294047700,0.1700478515625,8.879764556884766,4.203591346740723,0.09032905846834183
1772884846310655000,0.186655029296875,9.059226989746094,4.12343168258667,0.16510476171970367
1772884846327263200,0.20326318359375,9.073583602905273,4.113860130310059,0.17946170270442963
1772884846343867100,0.2198671875,8.924032211303711,4.183850288391113,0.18544375896453857
1772884846360493800,0.236493896484375,8.760722160339355,4.220340728759766,0.1866401731967926
1772884846377097700,0.25309765625,8.788239479064941,4.2831525802612305,0.16331014037132263
1772884846393702400,0.269702392578125,8.960522651672363,4.233501434326172,0.03290131315588951
1772884846410306300,0.286306396484375,9.087342262268066,4.335794448852539,-0.0005982056609354913
1772884846426920400,0.30292041015625,9.007183074951172,4.230510234832764,-0.11605189740657806
1772884846443522800,0.319522705078125,8.886344909667969,4.314857482910156,-0.062213387340307236
1772884846460131800,0.3361318359375,8.74636459350586,4.408775806427002,-0.0029910283628851175
1772884846476737300,0.3527373046875,8.665607452392578,4.374678134918213,-0.046061836183071136
1772884846493346800,0.369346923828125,8.426922798156738,4.329214572906494,-0.06400800496339798
1772884846509950200,0.3859501953125,8.562117576599121,4.334000110626221,0.12203395366668701
1772884846526529000,0.402529052734375,9.065208435058594,4.3896331787109375,0.41096729040145874
1772884846543175200,0.419175048828125,8.991629600524902,4.36809778213501,0.019142581149935722
1772884846559774500,0.4357744140625,8.892925262451172,4.242474555969238,-0.019740786403417587
1772884846576378400,0.45237841796875,8.801400184631348,4.289134502410889,0.053240302950143814
1772884846592987000,0.46898681640625,8.594420433044434,4.381856441497803,0.13639089465141296
1772884846609593900,0.48559375,8.349156379699707,4.4512481689453125,0.09511470049619675
1772884846626188000,0.50218798828125,8.228917121887207,4.459623336791992,0.0526420995593071
1772884846642806300,0.51880615234375,8.396414756774902,4.447659015655518,0.03768695518374443
1772884846659415600,0.53541552734375,8.612366676330566,4.402195453643799,0.01196411345154047
1772884846676027100,0.552027099609375,8.809176445007324,4.361517429351807,-0.0323031060397625
1772884846692628000,0.5686279296875,8.839685440063477,4.285545349121094,-0.028115665540099144
1772884846709236700,0.58523681640625,8.59202766418457,4.211368083953857,-0.06580262631177902
1772884846725828900,0.601828857421875,8.309076309204102,3.9595232009887695,-0.1136590763926506
1772884846742423300,0.61842333984375,7.885547161102295,3.8733816146850586,-0.05024927482008934
1772884846759044400,0.63504443359375,7.366902828216553,3.7609190940856934,0.11964113265275955
1772884846775651600,0.651651611328125,7.009175777435303,3.713660717010498,0.15972091257572174
1772884846792259600,0.668259521484375,6.988238334655762,3.527618885040283,0.053240302950143814
1772884846808863000,0.684863037109375,6.9481587409973145,3.2715866565704346,-0.2548356056213379
1772884846825473000,0.70147314453125,6.849454879760742,2.953939437866211,-0.17527425289154053
1772884846842081500,0.71808154296875,6.87099027633667,2.706880569458008,0.22911277413368225
1772884846858697200,0.734697265625,6.664011001586914,2.4131617546081543,0.7160521745681763
1772884846875305200,0.75130517578125,6.031707763671875,2.1577277183532715,1.2915260791778564
1772884846891915500,0.76791552734375,5.493920803070068,2.139183521270752,1.7060825824737549
1772884846908521000,0.78452099609375,5.637490272521973,2.0925233364105225,2.297708034515381
1772884846925110000,0.801110107421875,6.719644069671631,2.2301106452941895,2.12542462348938
1772884846941725200,0.81772509765625,7.611568927764893,1.9669002294540405,1.5876377820968628
1772884846958330000,0.834330078125,8.46341323852539,1.6654045581817627,1.5086746215820312
1772884846974937900,0.850937744140625,10.100702285766602,2.0584256649017334,1.2586246728897095
1772884846991541500,0.86754150390625,12.563515663146973,3.2476584911346436,0.09571290761232376
1772884847008149800,0.884149658203125,16.472789764404297,4.409972190856934,-1.7012969255447388
1772884847024757200,0.90075732421875,18.386449813842773,4.085146427154541,-2.7284159660339355
1772884847041364700,0.91736474609375,17.6213436126709,3.696911096572876,-3.104687452316284
1772884847057959700,0.933959716796875,16.355541229248047,4.812564373016357,-3.0993034839630127
1772884847074592800,0.9505927734375,15.903297424316406,5.359922885894775,-2.7050859928131104
1772884847091195400,0.9671953125,15.056836128234863,4.780859470367432,-2.0925233364105225
1772884847107809000,0.98380908203125,13.582259178161621,5.1768717765808105,-0.97148597240448
1772884847124397600,1.0003974609375,11.597413063049316,5.675177097320557,-0.16749759018421173
1772884847141019000,1.017018798828125,8.855836868286133,5.781059741973877,0.21236300468444824
1772884847157639400,1.033639404296875,7.202994346618652,5.009374141693115,0.5886343717575073
1772884847174231600,1.0502314453125,7.346563816070557,3.352344512939453,0.9200403094291687
1772884847190831900,1.066831787109375,7.53858757019043,1.3621143102645874,1.129412293434143
1772884847207439000,1.083439208984375,8.84088134765625,-0.388235479593277,2.103889226913452
1772884847224053000,1.100052978515625,11.521441459655762,-0.49232324957847595,2.6141586303710938
1772884847240644400,1.116644287109375,13.097114562988281,-0.41096729040145874,2.3090739250183105
1772884847257255700,1.133255615234375,12.186047554016113,-0.4259224236011505,1.2191431522369385
1772884847273859300,1.149859375,9.103493690490723,0.2679961323738098,-0.5665007829666138
1772884847290470100,1.16647021484375,5.24626350402832,0.7280163168907166,-2.2534406185150146
1772884847307075800,1.183075927734375,3.623929977416992,1.0031908750534058,-2.926422119140625
1772884847323670300,1.199670166015625,3.064009428024292,1.6737794876098633,-3.1716864109039307
1772884847340302600,1.216302490234375,2.475973129272461,2.365903377532959,-2.5704896450042725
1772884847356897300,1.232897216796875,2.2019951343536377,2.908475875854492,-1.9381862878799438
1772884847373518600,1.2495185546875,2.0105693340301514,3.238685369491577,-1.6522440910339355
1772884847390090800,1.2660908203125,2.0506489276885986,2.8797619342803955,-0.9571290612220764
1772884847406737400,1.2827373046875,2.678765058517456,2.691925525665283,-0.5605186820030212
1772884847423337200,1.299337158203125,3.531208038330078,2.568096876144409,-0.0975075215101242
1772884847439945200,1.3159453125,3.7405800819396973,2.5286152362823486,0.3320041298866272
1772884847456521700,1.332521728515625,2.7601208686828613,2.4287149906158447,0.12143574655056
1772884847473159700,1.34915966796875,1.9962122440338135,2.654836654663086,-0.4612165689468384
1772884847489747200,1.365747314453125,2.9653055667877197,3.0801608562469482,-0.2961117923259735
1772884847506374700,1.382374755859375,5.419145107269287,3.3643085956573486,0.4097708761692047
1772884847522980000,1.39897998046875,8.14815902709961,3.300898790359497,1.207179069519043
1772884847539585500,1.41558544921875,12.314661979675293,3.1316065788269043,0.5174478888511658
1772884847556179000,1.432178955078125,17.6159610748291,2.310868501663208,0.23748764395713806
1772884847572799200,1.44879931640625,20.164915084838867,1.7688941955566406,-0.9290133714675903
1772884847589409000,1.465408935546875,16.125829696655273,3.339184045791626,-2.276770830154419
1772884847606017300,1.482017333984375,13.213765144348145,7.355536937713623,0.1704886108636856
1772884847622620400,1.498620361328125,13.47877025604248,12.315857887268066,3.0753753185272217
1772884847639229200,1.515229248046875,15.316457748413086,13.96391487121582,6.496513366699219
1772884847655836000,1.5318359375,21.373289108276367,12.134601593017578,7.630113124847412
1772884847672440300,1.5484404296875,29.54418182373047,7.493722438812256,7.779664516448975
1772884847689044200,1.565044189453125,35.77329635620117,4.194618225097656,4.558925151824951
1772884847705655600,1.581655517578125,28.381269454956055,5.554937839508057,-0.09571290761232376
1772884847722248200,1.598248291015625,14.650056838989258,8.079963684082031,-3.500699520111084
1772884847738856000,1.61485595703125,11.0171537399292,8.261817932128906,-2.4029922485351562
1772884847755462100,1.631462158203125,14.422140121459961,5.54177713394165,1.1736794710159302
1772884847772070400,1.6480703125,13.886148452758789,2.2169501781463623,3.2853455543518066
1772884847788679200,1.66467919921875,10.671989440917969,0.31465616822242737,4.581058979034424
1772884847805282800,1.68128271484375,8.630910873413086,0.997208833694458,6.190232276916504
1772884847821895200,1.697895263671875,6.421139717102051,2.337787628173828,7.307680130004883
1772884847838516200,1.71451611328125,10.933404922485352,2.5740790367126465,7.207181930541992
1772884847855140000,1.73114013671875,17.009977340698242,1.1617153882980347,3.040081262588501
1772884847871724800,1.747724853515625,13.917254447937012,-0.4331009089946747,-0.3690928816795349
1772884847888333300,1.764333251953125,7.820342540740967,1.9280169010162354,-1.0157532691955566
1772884847904942300,1.7809423828125,1.5146567821502686,2.943171739578247,-0.054436713457107544
1772884847921550000,1.797550048828125,-0.8470591902732849,3.6783666610717773,1.662413477897644
1772884847938154200,1.814154296875,-1.6259230375289917,2.7589244842529297,1.3537393808364868
1772884847954751200,1.830751220703125,-0.28594231605529785,1.9100706577301025,0.3930211067199707
1772884847971367200,1.8473671875,1.2610175609588623,1.0031908750534058,-1.334596872329712
1772884847987977500,1.8639775390625,3.5754752159118652,0.3403790295124054,-2.6871397495269775
1772884848004581400,1.880581298828125,5.642275810241699,-0.064606212079525,-2.5058834552764893
1772884848021193000,1.89719287109375,5.606383323669434,0.04785645380616188,-1.0791629552841187
1772884848037797400,1.91379736328125,3.6951162815093994,0.13579268753528595,-0.3409772217273712
1772884848054389200,1.93038916015625,2.070389747619629,-0.05802594870328903,0.16929219663143158
1772884848071011300,1.94701123046875,2.148754835128784,-0.07776673883199692,0.3451646566390991
1772884848087618800,1.963618896484375,2.7278177738189697,-0.3858426511287689,0.1818545162677765
1772884848104232000,1.98023193359375,2.870789051055908,-0.7357929348945618,-0.16091732680797577
1772884848120832800,1.996832763671875,2.9485557079315186,-0.6239284873008728,0.3415754437446594
1772884848137439000,2.01343896484375,2.1954147815704346,-0.519242525100708,1.1407781839370728
1772884848154051300,2.03005126953125,1.6654045581817627,-0.3936193287372589,0.867398202419281
1772884848170648000,2.04664794921875,1.4799607992172241,-0.5186443328857422,0.7046862840652466
1772884848187270400,2.0632705078125,1.6857435703277588,-0.15553347766399384,1.0552347898483276
1772884848203868400,2.079868408203125,1.825723648071289,0.06999006122350693,1.1521440744400024
1772884848220457700,2.096457763671875,1.4811571836471558,0.09990034252405167,0.5324030518531799
1772884848237068300,2.113068359375,1.1491531133651733,0.21236300468444824,-0.16809579730033875
1772884848261983200,2.137983154296875,3.5377883911132812,2.1882362365722656,1.3058829307556152
1772884848278572800,2.15457275390625,7.1228346824646,3.105883836746216,2.6739792823791504
1772884848295194000,2.171194091796875,12.55573844909668,3.8147575855255127,3.0317063331604004
1772884848311796200,2.187796142578125,17.132610321044922,4.311268329620361,0.31345975399017334
1772884848328417500,2.20441748046875,20.05484390258789,6.5868425369262695,-2.134995937347412
1772884848345015300,2.221015380859375,17.63091468811035,11.56869888305664,-3.483351469039917
1772884848361623600,2.23762353515625,11.973684310913086,18.805192947387695,-5.4628143310546875
1772884848378242800,2.254242919921875,7.632505893707275,21.87458610534668,-4.292723655700684
1772884848394849300,2.270849365234375,10.444072723388672,18.07598114013672,0.851844847202301
1772884848411435800,2.287435791015625,12.816555976867676,13.359128952026367,2.4047868251800537
1772884848428066800,2.30406689453125,18.9445743560791,7.643871784210205,2.7361927032470703
1772884848444669400,2.32066943359375,20.507686614990234,3.607180118560791,2.953939437866211
1772884848461280000,2.337280029296875,18.636499404907227,4.120440483093262,4.694119930267334
1772884848477882600,2.353882568359375,20.422740936279297,3.1208388805389404,4.348955154418945
1772884848494487000,2.370487060546875,23.13141632080078,0.7100701332092285,1.0959128141403198
1772884848511082800,2.387082763671875,20.511873245239258,-0.10049854964017868,-0.9547362327575684
1772884848527709400,2.40370947265625,14.46760368347168,0.8865407705307007,-0.3936193287372589
1772884848544306700,2.420306640625,9.005986213684082,1.690529227256775,0.8003991842269897
1772884848560915500,2.43691552734375,5.31266450881958,2.5328028202056885,1.583450436592102
1772884848577534500,2.453534423828125,3.7633118629455566,3.2476584911346436,1.2496516704559326
1772884848594129200,2.470129150390625,3.6526436805725098,3.490530014038086,0.2392822653055191
1772884848610744300,2.486744384765625,3.61017107963562,3.1824541091918945,-0.7848458290100098
1772884848627349500,2.503349609375,3.830310821533203,2.803191661834717,-1.0528420209884644
1772884848643952400,2.519952392578125,3.950550079345703,2.791825771331787,-0.9002995491027832
1772884848660560100,2.53656005859375,3.6993038654327393,2.767897605895996,-0.9475577473640442
1772884848677171700,2.553171630859375,3.0490541458129883,2.7702903747558594,-0.8219345808029175
1772884848693771800,2.569771728515625,2.7248268127441406,2.8486554622650146,-0.8291130661964417
1772884848710382300,2.58638232421875,2.2582263946533203,2.93001127243042,-0.8787640929222107
1772884848726973200,2.60297314453125,1.404586911201477,3.0622148513793945,-0.4103690981864929
1772884848743583200,2.619583251953125,1.5535401105880737,3.197409152984619,0.48514479398727417
1772884848760190000,2.63618994140625,3.1543383598327637,3.1920254230499268,1.563111424446106
1772884848776796400,2.65279638671875,4.019343852996826,3.600001573562622,2.376072883605957
1772884848793407000,2.669406982421875,4.615755081176758,3.88594388961792,2.633899450302124
1772884848810011100,2.68601123046875,6.089733600616455,4.063013076782227,2.9521448612213135
1772884848826633000,2.702633056640625,9.594620704650879,4.24367094039917,2.3982064723968506
1772884848843230500,2.71923046875,12.04666519165039,4.286741733551025,1.435693621635437
1772884848859851800,2.735851806640625,14.93958854675293,3.583850145339966,-0.6556333899497986
1772884848876439800,2.752439697265625,17.854045867919922,3.3756744861602783,-0.8123632669448853
1772884848893074700,2.76907470703125,20.07757568359375,6.44387149810791,0.0687936544418335
1772884848909649200,2.785649169921875,20.763717651367188,9.647262573242188,1.0941181182861328
1772884848926274300,2.8022744140625,18.493528366088867,8.609973907470703,-0.9158528447151184
1772884848942876400,2.81887646484375,15.564713478088379,7.280162811279297,-2.406581401824951
1772884848959491800,2.835491943359375,10.551749229431152,6.440880298614502,-1.3728820085525513
1772884848976093700,2.85209375,6.072983741760254,6.511468410491943,-0.45284169912338257
1772884848992685600,2.868685546875,4.435096740722656,4.289732933044434,-0.17647066712379456
1772884849009305900,2.885305908203125,4.11505651473999,2.0195422172546387,1.176072359085083
1772884849025917400,2.90191748046875,6.783652305603027,1.6139588356018066,3.5467612743377686
1772884849042520300,2.918520263671875,11.736196517944336,1.6462619304656982,4.161716938018799
1772884849059125800,2.935125732421875,14.680564880371094,0.5862415432929993,3.4779677391052246
1772884849075739600,2.95173974609375,14.329418182373047,0.527019202709198,1.8903298377990723
1772884849092342800,2.9683427734375,9.418747901916504,1.923829436302185,-0.7854440212249756
1772884849108946400,2.984946533203125,4.331607341766357,2.1822543144226074,-1.2436695098876953
1772884849125560000,3.00156005859375,2.6775684356689453,3.049652576446533,-0.9613165259361267
1772884849142163500,3.01816357421875,2.2241287231445312,3.147160053253174,0.1704886108636856
1772884849158763800,3.034763671875,2.183450698852539,3.1334011554718018,0.9822536706924438
1772884849175385600,3.051385498046875,2.316850423812866,3.476173162460327,0.7208378314971924
1772884849191984600,3.067984619140625,2.486740827560425,3.5682966709136963,0.623330295085907
1772884849208590000,3.084590087890625,2.4699912071228027,3.710669755935669,1.1150553226470947
1772884849225185300,3.101185302734375,3.3960134983062744,4.506283283233643,1.6815561056137085
1772884849241791700,3.117791748046875,5.279164791107178,5.5998029708862305,2.2259232997894287
1772884849258403600,3.134403564453125,8.912068367004395,6.655636310577393,2.5710878372192383
1772884849274988500,3.150988525390625,14.310873985290527,6.803991317749023,2.018944025039673
1772884849291609600,3.167609619140625,19.106689453125,4.716253280639648,1.2759727239608765
1772884849308219100,3.18421923828125,19.893329620361328,4.249054908752441,-0.4983053207397461
1772884849324831500,3.20083154296875,15.437893867492676,5.9784674644470215,-2.2331018447875977
1772884849341422600,3.217422607421875,9.554540634155273,8.37129020690918,-1.7988044023513794
1772884849358042600,3.234042724609375,8.059624671936035,7.373483180999756,-0.7938188910484314
1772884849374652700,3.250652587890625,10.754541397094727,6.068796634674072,-1.046859860420227
1772884849391249400,3.26724951171875,12.230315208435059,4.35673189163208,0.2590230405330658
1772884849407878400,3.28387841796875,13.433306694030762,2.971287488937378,0.8578268885612488
1772884849424487700,3.30048779296875,13.205389976501465,0.7214360237121582,1.4811571836471558
1772884849441090800,3.3170908203125,10.454241752624512,0.34695929288864136,1.5900306701660156
1772884849457698300,3.3336982421875,7.079763889312744,1.0498509407043457,2.2713868618011475
1772884849474305500,3.350305419921875,6.880561351776123,1.8370895385742188,2.569293260574341
1772884849490894600,3.36689453125,9.54078197479248,2.121237277984619,1.9956140518188477
1772884849507519500,3.38351953125,10.027721405029297,2.0195422172546387,1.5553346872329712
1772884849524130600,3.400130615234375,8.46161937713623,2.5334010124206543,0.989432156085968
1772884849540733000,3.41673291015625,4.579862594604492,2.846860647201538,0.4773681163787842
1772884849557340400,3.43334033203125,1.4476577043533325,3.208775281906128,-0.05922235921025276
1772884849573948000,3.449947998046875,0.8392825126647949,3.3134610652923584,-0.3080759048461914
1772884849590549500,3.466549560546875,2.173879384994507,3.2656047344207764,-0.07417750358581543
1772884849607161300,3.483161376953125,2.445464849472046,3.772883176803589,0.5353940725326538
1772884849623773200,3.499773193359375,4.098905086517334,4.498506546020508,0.8943174481391907
1772884849640375300,3.516375244140625,5.02432918548584,5.424529075622559,1.0809576511383057
1772884849656982300,3.532982177734375,6.711867332458496,6.051448345184326,0.9649057388305664
1772884849673588700,3.549588623046875,10.435697555541992,7.125825881958008,1.0995019674301147
1772884849690219300,3.56621923828125,15.844075202941895,6.553941249847412,0.9302098155021667
1772884849706801400,3.582801513671875,21.38525390625,4.951348304748535,1.2263215780258179
1772884849723415800,3.599415771484375,21.19322967529297,4.659423828125,-0.6586244106292725
1772884849740017400,3.616017333984375,14.842679023742676,7.039085865020752,-2.6285157203674316
1772884849756621000,3.63262109375,11.915060043334961,9.677172660827637,-2.8863422870635986
1772884849806430500,3.682430419921875,14.431711196899414,5.399404525756836,2.2055842876434326
1772884849823037400,3.699037353515625,12.139986038208008,5.842076301574707,3.5611183643341064
1772884849839644400,3.71564453125,12.041281700134277,4.759922504425049,2.936591625213623
1772884849856251600,3.732251708984375,11.370095252990723,3.0041887760162354,2.018944025039673
1772884849872858600,3.748858642578125,9.125029563903809,2.39401912689209,1.6348960399627686
1772884849889478000,3.765477783203125,6.632306098937988,2.7290141582489014,1.8759729862213135
1772884849906085400,3.78208544921875,3.841078519821167,2.8941190242767334,1.3716856241226196
1772884849922698000,3.798697998046875,2.874976396560669,2.541177749633789,1.168893814086914
1772884849939300600,3.815300537109375,3.1800613403320312,2.6009981632232666,1.2251251935958862
1772884849955907000,3.831906982421875,3.64127779006958,2.59621262550354,0.6963114142417908
1772884849972514000,3.84851416015625,4.47697114944458,2.3533411026000977,0.4743770956993103
1772884849989119200,3.865119140625,3.391227960586548,1.8352949619293213,-0.22612173855304718
1772884850005729300,3.881729248046875,1.2059825658798218,1.5589239597320557,-1.5026925802230835
1772884850022336500,3.89833642578125,-0.2925225794315338,1.906481385231018,-2.1278176307678223
1772884850038942500,3.9149423828125,0.10767702013254166,2.7146573066711426,-1.4877375364303589
1772884850055549000,3.931548828125,1.3525429964065552,3.617349624633789,-0.25423741340637207
1772884850072139500,3.948139404296875,1.7168502807617188,5.050650596618652,1.1030912399291992
1772884850088763600,3.964763671875,3.4061830043792725,6.696314334869385,2.2534406185150146
1772884850105370000,3.9813701171875,7.158727169036865,6.843472957611084,2.080559253692627
1772884850121977600,3.9979775390625,12.824333190917969,5.787639617919922,1.1700903177261353
1772884850138584600,4.01458447265625,18.155542373657227,4.984847545623779,0.47916272282600403
1772884850155191300,4.03119140625,18.902103424072266,5.354538917541504,-2.1816561222076416
1772884850171798500,4.047798583984375,13.679766654968262,8.671588897705078,-4.561916351318359
1772884850188407000,4.064406982421875,9.523433685302734,13.64327621459961,-5.329414367675781
1772884850205012700,4.0810126953125,6.748956203460693,12.56411361694336,-4.609174728393555
1772884850221617700,4.09761767578125,14.869598388671875,9.236893653869629,-2.441277265548706
1772884850238226700,4.114226806640625,19.271793365478516,7.4847493171691895,0.5389832854270935
1772884850254833200,4.130833251953125,19.715662002563477,5.98444938659668,2.63449764251709
1772884850271423500,4.147423583984375,19.200607299804688,3.735196113586426,3.706482172012329
1772884850288030500,4.164030517578125,14.724234580993652,3.3056845664978027,2.915654420852661
1772884850304640500,4.180640625,8.14098072052002,2.6727828979492188,1.9674984216690063
1772884850321251000,4.1972509765625,4.313661098480225,2.035693883895874,1.664208173751831
1772884850337854700,4.213854736328125,3.6358940601348877,1.7916259765625,1.933998942375183
1772884850354462000,4.2304619140625,4.531407833099365,2.297708034515381,2.0620148181915283
1772884850371068400,4.247068359375,3.806980848312378,2.743969440460205,1.5667005777359009
1772884850387672800,4.2636728515625,2.3982064723968506,3.0137600898742676,0.6442674994468689
1772884850404299000,4.280299072265625,2.0003998279571533,3.190829038619995,-0.4378865361213684
1772884850420907800,4.29690771484375,1.3441680669784546,2.6321048736572266,-1.466800332069397
1772884850437511000,4.313510986328125,0.4899304509162903,2.372483730316162,-1.8891334533691406
1772884850454117600,4.33011767578125,0.3086741268634796,2.3647069931030273,-1.7353945970535278
1772884850470724400,4.346724365234375,0.30149564146995544,2.366501569747925,-1.3764712810516357
1772884850487310600,4.363310546875,-0.2153540402650833,2.5154547691345215,-0.9565308690071106
1772884850503938600,4.3799384765625,1.287936806678772,2.6943182945251465,-0.355932354927063
1772884850520550000,4.3965498046875,1.1958130598068237,3.9451663494110107,1.6241283416748047
1772884850537152500,4.413152587890625,3.882952928543091,5.240281581878662,3.631706476211548
1772884850553759500,4.429759521484375,10.478170394897461,5.353342533111572,4.9393839836120605
1772884850570367000,4.446366943359375,19.303499221801758,2.82951283454895,5.172684192657471
1772884850586969600,4.462969482421875,23.651256561279297,2.293520450592041,3.331407308578491
1772884850603580400,4.479580322265625,16.98305892944336,6.114858150482178,0.02512463741004467
1772884850620191500,4.49619140625,7.094718933105469,11.82891845703125,-1.3980066776275635
1772884850636794400,4.51279443359375,2.069791555404663,12.270394325256348,0.5563312768936157
1772884850653401600,4.529401611328125,4.542175769805908,11.002198219299316,0.34695929288864136
1772884850670008800,4.5460087890625,15.06700611114502,7.067800045013428,0.30149564146995544
1772884850686610400,4.5626103515625,25.394428253173828,1.2299108505249023,1.1234302520751953
1772884850703223000,4.57922314453125,26.227130889892578,0.10827522724866867,0.09152546525001526
1772884850719832000,4.59583203125,15.546168327331543,1.8634105920791626,0.6813562512397766
1772884850736436200,4.612436279296875,7.8041911125183105,2.1433708667755127,3.032304525375366
1772884850753043500,4.62904345703125,5.052444934844971,4.243072986602783,2.4987051486968994
1772884850769633500,4.645633544921875,13.671990394592285,3.6017963886260986,1.6133606433868408
1772884850786245400,4.662245361328125,16.469200134277344,1.9381862878799438,1.5517455339431763
1772884850802851000,4.67885107421875,14.626726150512695,2.6805596351623535,0.7974081635475159
1772884850819456000,4.6954560546875,9.117252349853516,3.7435710430145264,-0.09152546525001526
1772884850836064800,4.712064697265625,3.19441819190979,4.173680782318115,-0.8488538265228271
1772884850852671500,4.72867138671875,0.08554340898990631,4.29451847076416,-1.0552347898483276
1772884850869278700,4.74527880859375,0.33858439326286316,5.0225348472595215,-1.978864312171936
1772884850885902600,4.761902587890625,1.6157535314559937,4.762913703918457,-1.3040883541107178
1772884850902500400,4.778500244140625,3.0933215618133545,5.037489891052246,-0.6885347366333008
1772884850919119400,4.795119384765625,3.463012456893921,5.277968406677246,0.24825534224510193
1772884850935721000,4.811720947265625,4.404588222503662,5.710471153259277,1.2747762203216553
1772884850952327200,4.8283271484375,5.552545070648193,6.299703598022461,1.5068800449371338
1772884850968934400,4.844934326171875,7.724629878997803,6.376274108886719,0.8685946464538574
1772884850985543200,4.861543212890625,11.729018211364746,5.672784328460693,0.9032905697822571
1772884851002152400,4.87815234375,16.210176467895508,4.491328239440918,1.5002998113632202
1772884851018758000,4.8947578125,19.804794311523438,3.7573297023773193,1.771286964416504
1772884851035362800,4.91136279296875,19.89691925048828,3.600599765777588,0.04785645380616188
1772884851051969300,4.92796923828125,15.345171928405762,4.8227338790893555,-0.9984052777290344
1772884851068576500,4.944576416015625,8.798408508300781,8.702695846557617,-0.16749759018421173
1772884851085184000,4.96118408203125,4.505684852600098,11.748161315917969,-0.18783657252788544
1772884851101790200,4.977790283203125,7.470392227172852,11.193026542663574,-2.131406784057617
1772884851118397700,4.994397705078125,14.538191795349121,6.424130439758301,-1.2598211765289307
1772884851135019800,5.011019775390625,19.532012939453125,2.0135602951049805,1.113858938217163
1772884851151608600,5.027608642578125,17.362918853759766,1.3142578601837158,1.7718851566314697
1772884851168221200,5.04422119140625,11.84566879272461,1.9250258207321167,2.8977081775665283
1772884851184822500,5.060822509765625,7.731808185577393,2.833101987838745,3.473181962966919
1772884851201432300,5.077432373046875,9.147162437438965,2.699702262878418,2.9521448612213135
1772884851218039600,5.09403955078125,10.65224838256836,1.6019947528839111,1.6253247261047363
1772884851234646300,5.110646240234375,8.531010627746582,1.8604196310043335,-0.02512463741004467
1772884851251253000,5.1272529296875,5.645864963531494,2.5531418323516846,-0.20039889216423035
1772884851267843300,5.14384326171875,3.9146578311920166,3.1244282722473145,0.8614161610603333
1772884851284453400,5.160453369140625,2.5878376960754395,3.3828530311584473,1.4015958309173584
1772884851301060600,5.177060546875,1.8376877307891846,2.895913600921631,0.8859425783157349
1772884851317667800,5.193667724609375,1.4267204999923706,2.4777679443359375,0.5407779216766357
1772884851334274800,5.21027490234375,1.3710874319076538,2.606980323791504,0.43190449476242065
1772884851350881500,5.226881591796875,1.7198412418365479,2.6494529247283936,0.4253242313861847
1772884851367488800,5.24348876953125,1.8705891370773315,2.8079774379730225,0.5216353535652161
1772884851384117500,5.260117431640625,1.8717855215072632,3.1962127685546875,0.4378865361213684
1772884851400716300,5.27671630859375,1.688734531402588,3.7082769870758057,0.20877377688884735
1772884851417319200,5.293319091796875,2.124826431274414,4.2987060546875,0.5593222975730896
1772884851433931000,5.309930908203125,4.227519512176514,5.599205017089844,1.7718851566314697
1772884851450537200,5.326537109375,7.688138961791992,6.516852378845215,2.3814568519592285
1772884851467144400,5.34314453125,12.700504302978516,6.961917400360107,2.538186550140381
1772884851483735300,5.3597353515625,15.849458694458008,7.157530784606934,0.9385846853256226
1772884851500358100,5.376358154296875,15.406786918640137,7.741379261016846,-1.441077470779419
1772884851516970000,5.392969970703125,12.811172485351562,9.215956687927246,-2.6015963554382324
1772884851533572000,5.409572021484375,9.958329200744629,10.832906723022461,-1.0145567655563354
1772884851550179000,5.426178955078125,7.362117290496826,11.477173805236816,0.4205385744571686
1772884851566786600,5.44278662109375,5.119443893432617,12.306884765625,0.1381855010986328
1772884851583390000,5.459389892578125,3.7507495880126953,11.078170776367188,-1.2406785488128662
1772884851599983900,5.47598388671875,5.3455657958984375,10.395618438720703,-2.245065927505493
1772884851616611300,5.492611328125,11.59681510925293,7.9142608642578125,-1.85383939743042
1772884851633214700,5.509214599609375,17.754146575927734,4.775475978851318,2.1439690589904785
1772884851649821400,5.525821533203125,20.10030746459961,4.336990833282471,3.266202926635742
1772884851666428400,5.542428466796875,17.737995147705078,2.5674986839294434,3.5437703132629395
1772884851683031000,5.559031005859375,12.055638313293457,3.246462106704712,0.7399803996086121
1772884851699642600,5.575642578125,7.6498541831970215,4.056432723999023,-1.1521440744400024
1772884851716254000,5.59225390625,5.012365341186523,4.419543266296387,-1.0007981061935425
1772884851732835800,5.6088359375,2.730210542678833,4.2622151374816895,-0.6203392744064331
1772884851749460000,5.6254599609375,1.1832507848739624,3.913461446762085,-0.3846462368965149
1772884851766057000,5.642056884765625,0.8225327730178833,3.356531858444214,-0.04247260093688965
1772884851782663400,5.658663330078125,1.932802438735962,2.9599215984344482,0.22552353143692017
1772884851799268600,5.6752685546875,4.0558342933654785,3.019742250442505,0.9314061999320984
1772884851815880000,5.6918798828125,4.229313850402832,2.8522446155548096,0.6137589812278748
1772884851832484600,5.708484619140625,2.3306093215942383,2.8797619342803955,-0.6143572330474854
1772884851849091600,5.725091552734375,0.47258245944976807,3.022135019302368,-1.1958130598068237
1772884851865715500,5.741715576171875,-0.11724831163883209,3.073580741882324,-1.225723385810852
1772884851882315500,5.7583154296875,1.0414760112762451,3.441477060317993,-0.7938188910484314
1772884851898926300,5.77492626953125,3.8638103008270264,4.312464714050293,-0.5264210104942322
1772884851915537700,5.79153759765625,8.288139343261719,5.289932727813721,0.4701896607875824
1772884851932140500,5.808140625,13.424931526184082,6.7692952156066895,0.7435696125030518
1772884851948747300,5.824747314453125,16.28495216369629,7.576872825622559,-0.0364905446767807
1772884851965354200,5.841354248046875,16.091732025146484,8.47477912902832,-0.6837490797042847
1772884851981958400,5.85795849609375,14.21157169342041,9.960722923278809,0.031106693670153618
1772884851998569500,5.874569580078125,10.683953285217285,10.906485557556152,-0.27696922421455383
1772884852015177000,5.891177001953125,8.874381065368652,11.214561462402344,-1.77607262134552
1772884852031782000,5.907781982421875,8.179863929748535,10.149755477905273,-1.2346965074539185
1772884852048389400,5.924389404296875,7.2125654220581055,10.101301193237305,-0.02871387079358101
1772884852064996600,5.94099658203125,8.903095245361328,9.997213363647461,2.032104730606079
1772884852081581000,5.9575810546875,10.801201820373535,8.247461318969727,2.6350958347320557
1772884852098211000,5.974211181640625,12.40977668762207,6.168696880340576,2.6249263286590576
1772884852114821600,5.990821533203125,13.897514343261719,4.1521453857421875,2.510669231414795
1772884852131423700,6.007423828125,13.48594856262207,2.819941520690918,1.5798611640930176
1772884852148033300,6.024033203125,10.401001930236816,1.965105652809143,0.7926225066184998
1772884852164636400,6.040636474609375,6.035895347595215,1.949552297592163,-0.16390834748744965
1772884852181256700,6.057256591796875,3.0376882553100586,2.2648067474365234,-1.100698471069336
1772884852197852700,6.073852783203125,2.052443504333496,2.231307029724121,-1.8610178232192993
1772884852214457900,6.090457763671875,2.2713868618011475,2.400001049041748,-2.30069899559021
1772884852231065900,6.10706591796875,3.342175006866455,2.6368906497955322,-1.7742780447006226
1772884852247656200,6.12365625,4.494318962097168,2.7427730560302734,-0.8811569213867188
1772884852264266200,6.140266357421875,5.0087761878967285,2.8809585571289062,-0.12681959569454193
1772884852280874800,6.156874755859375,4.626522541046143,2.973680257797241,0.2967100143432617
1772884852297479000,6.17347900390625,4.11625337600708,2.9617161750793457,0.5335994362831116
1772884852314087700,6.190087646484375,4.353740692138672,3.1250264644622803,0.7154539823532104
1772884852330690600,6.206690673828125,5.0979084968566895,3.5306098461151123,0.7381857633590698
1772884852347305000,6.223304931640625,6.789036273956299,4.110270977020264,0.5557330846786499
1772884852363925800,6.23992578125,9.521639823913574,4.631308078765869,0.6927221417427063
1772884852380529400,6.256529296875,12.746565818786621,6.447460651397705,0.008374879136681557
1772884852397136100,6.27313623046875,14.027922630310059,8.10688304901123,-0.5030909776687622
1772884852413743000,6.2897431640625,13.754542350769043,9.963713645935059,-0.33918261528015137
1772884852430349800,6.306349853515625,12.381062507629395,11.117053985595703,0.7674978375434875
1772884852446957000,6.32295703125,9.372686386108398,11.450254440307617,0.50907301902771
1772884852463546600,6.339546630859375,7.008577346801758,12.020942687988281,-1.587039589881897
1772884852480155100,6.356155029296875,4.805386066436768,10.75394344329834,-4.099503517150879
1772884852496760300,6.37276025390625,5.391627788543701,9.067601203918457,-4.244867324829102
1772884852513372200,6.3893720703125,10.894521713256836,7.741977691650391,-2.1714866161346436
1772884852529978000,6.40597802734375,16.901702880859375,5.149952411651611,0.8745766878128052
1772884852546585000,6.422585205078125,17.63629913330078,2.8043880462646484,2.5226333141326904
1772884852563192300,6.4391923828125,12.820145606994629,2.3988046646118164,2.4460630416870117
1772884852579799000,6.455799072265625,7.509873867034912,2.8211379051208496,1.689931035041809
1772884852596406300,6.47240625,5.540580749511719,2.9216363430023193,0.8841479420661926
1772884852613030400,6.489030517578125,6.718447685241699,2.826521635055542,-0.012562318705022335
1772884852629633800,6.5056337890625,7.427919864654541,2.383251428604126,-0.4217349886894226
1772884852646240500,6.522240478515625,6.4510498046875,2.077568292617798,-0.6675975322723389
1772884852662848000,6.538847900390625,4.283750534057617,2.3563320636749268,-1.2987045049667358
1772884852679454700,6.555454833984375,2.947359323501587,2.6434707641601562,-1.3704891204833984
1772884852696062000,6.57206201171875,2.2654049396514893,2.929413080215454,-0.890728235244751
1772884852712669000,6.5886689453125,1.9058831930160522,3.095116138458252,-0.5670989751815796
1772884852729276200,6.605276123046875,1.6277176141738892,2.9138598442077637,-0.41874396800994873
1772884852745865500,6.621865478515625,1.2598211765289307,3.284747362136841,-0.031106693670153618
1772884852762476000,6.63847607421875,1.7569299936294556,3.810570001602173,0.6634100675582886
1772884852779083000,6.6550830078125,2.6153552532196045,4.192225456237793,1.3884353637695312
1772884852795689700,6.671689697265625,5.916254043579102,5.050052165985107,1.5002998113632202
1772884852812297000,6.688296875,10.800602912902832,5.675775527954102,1.6689938306808472
1772884852828904000,6.704904052734375,14.31027603149414,6.985247611999512,0.6975077986717224
1772884852845528000,6.721528076171875,15.555740356445312,8.459824562072754,-0.7334001660346985
1772884852862131500,6.73813134765625,13.257433891296387,9.53779125213623,-1.5499508380889893
1772884852878738400,6.754738525390625,10.189835548400879,10.843673706054688,-1.4608181715011597
1772884852895346000,6.771345947265625,7.21735143661499,11.432906150817871,-1.353141188621521
1772884852911952600,6.78795263671875,6.580262184143066,11.389237403869629,-1.5607185363769531
1772884852928547600,6.804547607421875,7.5535430908203125,10.222138404846191,-0.9529415965080261
1772884852945166600,6.82116650390625,10.313065528869629,10.29332447052002,0.4666004180908203
1772884852961766000,6.837765869140625,14.67398452758789,8.962915420532227,2.7762725353240967
1772884852978380300,6.85438037109375,17.224136352539062,7.5667033195495605,3.0526435375213623
1772884852994987800,6.87098779296875,15.894922256469727,5.923432350158691,2.0865414142608643
1772884853011594500,6.887594482421875,12.162118911743164,4.684548377990723,0.6161518096923828
1772884853028201700,6.90420166015625,8.039285659790039,4.096512317657471,-0.7854440212249756
1772884853044819500,6.9208193359375,5.808577060699463,3.867997884750366,-1.5541383028030396
1772884853061415400,6.93741552734375,5.731408596038818,3.6083765029907227,-0.9433703422546387
1772884853078022100,6.954022216796875,6.430112838745117,3.768097400665283,0.33080771565437317
1772884853094613000,6.970613037109375,7.118647575378418,3.6526436805725098,1.3208380937576294
1772884853111236600,6.987236572265625,7.332805156707764,3.0448668003082275,1.6259230375289917
1772884853127843600,7.003843505859375,5.688337802886963,2.6285157203674316,0.6370890140533447
1772884853144450300,7.0204501953125,3.906282901763916,2.795415163040161,0.06041877344250679
1772884853161057500,7.0370576171875,2.3814568519592285,3.098107099533081,-0.29730820655822754
1772884853177664300,7.053664306640625,1.9202401638031006,3.136990547180176,-0.4139583110809326
1772884853194271500,7.070271484375,2.1068804264068604,3.204587697982788,-0.20398813486099243
1772884853210878500,7.08687841796875,3.029911756515503,3.3505499362945557,0.13639089465141296
1772884853227485400,7.1034853515625,4.849055290222168,3.7112679481506348,0.5545366406440735
1772884853244075000,7.120074951171875,7.109076023101807,4.250251293182373,0.8279166221618652
1772884853260685600,7.136685546875,9.963115692138672,5.288137912750244,0.5611169338226318
1772884853277292500,7.15329248046875,11.70867919921875,6.482754707336426,0.1585244983434677
1772884853293899500,7.1698994140625,11.746964454650879,7.752745151519775,-0.5880361795425415
1772884853310506500,7.186506591796875,10.816156387329102,8.468199729919434,-0.36729827523231506
1772884853327113500,7.203113525390625,9.796216011047363,9.086145401000977,-0.10348957777023315
1772884853343737900,7.21973779296875,9.370891571044922,9.260223388671875,-0.28175488114356995
1772884853360341000,7.236341064453125,9.377471923828125,9.480362892150879,-0.8159525394439697
1772884853376947700,7.25294775390625,8.659625053405762,9.981060981750488,-1.597209095954895
1772884853393557000,7.269556884765625,7.036693096160889,10.814960479736328,-1.5242279767990112
1772884853410160400,7.286160400390625,6.698108673095703,11.001002311706543,-0.7363911867141724
1772884853426769200,7.30276904296875,9.079565048217773,10.336994171142578,-0.03768695518374443
1772884853443373300,7.319373291015625,11.96471118927002,9.441479682922363,0.3128615617752075
1772884853459986000,7.33598583984375,12.632906913757324,7.816154956817627,0.4498506486415863
1772884853476590000,7.352590087890625,10.826326370239258,6.320042610168457,0.16689938306808472
1772884853493197600,7.369197509765625,7.995616912841797,5.175675392150879,0.040677983313798904
1772884853509804500,7.385804443359375,5.4526448249816895,4.286143779754639,0.08195417374372482
1772884853526413600,7.40241357421875,4.993222713470459,3.675973892211914,-0.2309073805809021
1772884853543018000,7.41901806640625,5.455037593841553,2.837289333343506,-0.06281159073114395
1772884853559625000,7.435625,5.2971110343933105,2.337787628173828,-0.008374879136681557
1772884853576232000,7.45223193359375,4.906482696533203,2.270190477371216,0.0891326442360878
1772884853592839200,7.468839111328125,4.139583110809326,2.441875457763672,0.31465616822242737
1772884853609445600,7.485445556640625,3.2763724327087402,2.6123640537261963,0.5551348328590393
1772884853626053400,7.502053466796875,2.999403238296509,2.764308452606201,0.34277185797691345
1772884853642659600,7.51865966796875,3.0897321701049805,2.9072794914245605,-0.04426721855998039
1772884853659266600,7.5352666015625,2.8139593601226807,3.273979663848877,-0.1788634955883026
1772884853675873800,7.551873779296875,2.8660032749176025,4.445266246795654,-0.576670229434967
1772884853692481000,7.56848095703125,4.244867324829102,5.484349727630615,-1.1365907192230225
1772884853709087500,7.58508740234375,6.787241458892822,6.650850772857666,-1.194616675376892
1772884853725677800,7.601677734375,8.952746391296387,8.286943435668945,-1.1473584175109863
1772884853742288000,7.618287841796875,9.93260669708252,9.721440315246582,-0.8745766878128052
1772884853758894800,7.634894775390625,9.851250648498535,10.316655158996582,-0.625723123550415
1772884853775502000,7.651502197265625,9.621540069580078,10.068997383117676,-0.544965386390686
1772884853792108800,7.66810888671875,9.525228500366211,9.77826976776123,-0.8045865893363953
1772884853808715800,7.6847158203125,9.215357780456543,10.479366302490234,-1.472184181213379
1772884853825323000,7.701322998046875,8.471190452575684,11.155937194824219,-2.108675003051758
1772884853841947400,7.717947509765625,9.544371604919434,11.188838958740234,-1.8179470300674438
1772884853858550300,7.73455029296875,11.861222267150879,10.966904640197754,-0.8620143532752991
1772884853875157200,7.7511572265625,13.646267890930176,9.41037368774414,0.503689169883728
1772884853891760000,7.767760009765625,13.701900482177734,7.429714202880859,1.0773683786392212
1772884853908375600,7.78437548828125,10.779067993164062,6.247660160064697,0.7357929348945618
1772884853924978700,7.800978759765625,7.03489875793457,5.656034469604492,0.8769695162773132
1772884853941586000,7.8175859375,4.252644062042236,5.143372058868408,1.3286148309707642
1772884853958178300,7.83417822265625,2.7834508419036865,4.46979284286499,1.5804593563079834
1772884853974798800,7.850798828125,2.222334146499634,3.699902057647705,1.3441680669784546
1772884853991406800,7.86740673828125,2.1332013607025146,3.3092737197875977,0.48035913705825806
1772884854008013000,7.884012939453125,2.8492536544799805,3.3343982696533203,-0.5084748268127441
1772884854024620500,7.90062060546875,4.662415027618408,2.692523717880249,-0.9589236974716187
1772884854041227500,7.9172275390625,5.614758491516113,1.9884356260299683,-0.7824530005455017
1772884854057834000,7.933833984375,4.905884742736816,2.2019951343536377,-0.9445667266845703
1772884854074441200,7.950441162109375,3.1208388805389404,2.5872395038604736,-0.625723123550415
1772884854091048000,7.9670478515625,1.9196419715881348,3.13220477104187,0.16510476171970367
1772884854107655700,7.98365576171875,2.0279171466827393,3.66520619392395,0.7328019142150879
1772884854124262000,8.000261962890624,3.1238300800323486,4.094717979431152,0.5527420043945312
1772884854140852500,8.0168525390625,5.426323413848877,4.536791801452637,0.4618147611618042
1772884854157476400,8.033476318359375,9.313464164733887,5.924030780792236,0.3397808074951172
1772884854174083000,8.0500830078125,13.209577560424805,7.430312633514404,-0.24466611444950104
1772884854190689800,8.066689697265625,14.718252182006836,8.800801277160645,-1.9459630250930786
1772884854207297500,8.083297607421875,12.80040454864502,8.14636516571045,-2.2989044189453125
1772884854223887000,8.09988720703125,9.64965534210205,8.441280364990234,-0.9541380405426025
1772884854240497200,8.1164970703125,8.722436904907227,8.00638484954834,0.09571290761232376
1772884854257104100,8.133104248046875,10.714461326599121,6.171687602996826,2.366501569747925
1772884854273711400,8.14971142578125,12.813565254211426,3.7561333179473877,3.2309088706970215
1772884854290318000,8.166318115234375,15.727424621582031,3.438486099243164,1.4859428405761719
1772884854306925300,8.18292529296875,17.614166259765625,3.284747362136841,0.5174478888511658
1772884854323535600,8.19953564453125,16.93819236755371,3.19860577583313,0.8075776696205139
1772884854340153300,8.2161533203125,13.950156211853027,3.1339993476867676,1.8137595653533936
1772884854356742700,8.23274267578125,10.555936813354492,3.0478577613830566,2.028515338897705
1772884854373366500,8.249366455078125,7.520641803741455,2.9521448612213135,1.5092729330062866
1772884854389973800,8.265973876953124,5.3934221267700195,3.008974552154541,0.5653043389320374
1772884854406580500,8.28258056640625,4.091128349304199,3.2135608196258545,-0.4827519655227661
1772884854423188000,8.29918798828125,3.9870407581329346,3.1094729900360107,-1.3441680669784546
1772884854439795200,8.315795166015626,4.442873477935791,2.925823926925659,-1.654038667678833
1772884854456401400,8.3324013671875,5.391029357910156,2.816950559616089,-1.1629117727279663
1772884854473008400,8.34900830078125,6.060421466827393,2.65842604637146,-0.1824527233839035
1772884854489615600,8.36561572265625,6.4695940017700195,2.7672994136810303,0.519242525100708
1772884854506222800,8.382222900390625,6.254240036010742,2.8911280632019043,0.841675341129303
1772884854522819300,8.3988193359375,5.971887111663818,3.108874797821045,0.7728816866874695
1772884854539436800,8.415436767578125,6.955935478210449,3.5395829677581787,0.3068794906139374
1772884854556043300,8.432043212890624,9.32722282409668,3.690330743789673,-0.3128615617752075
1772884854572634000,8.448634033203126,11.218749046325684,3.8841493129730225,-1.0492527484893799
1772884854589257500,8.465257568359375,11.807981491088867,4.632504463195801,-1.6971094608306885
1772884854605860600,8.481860595703125,11.517851829528809,6.441478729248047,-2.0745773315429688
1772884854622475300,8.498475341796874,11.078170776367188,7.737192153930664,-1.9381862878799438
1772884854639079200,8.5150791015625,11.052447319030762,8.695517539978027,-1.5625132322311401
1772884854655684400,8.531684326171876,10.900503158569336,8.891130447387695,-2.287538528442383
1772884854672298800,8.548298828125,10.743175506591797,7.988438606262207,-2.675773859024048
1772884854688899300,8.5648994140625,10.092328071594238,8.115856170654297,-1.542174220085144
1772884854705489400,8.581489501953126,10.366904258728027,8.85643482208252,0.11665010452270508
1772884854722099700,8.598099609375,11.557332992553711,7.789236068725586,0.5132604837417603
1772884854738693000,8.614693115234376,12.332009315490723,5.958128452301025,-0.4133601188659668
1772884854755313400,8.6313134765625,12.53599739074707,4.082155227661133,-2.475374937057495
1772884854771920600,8.647920654296875,11.680563926696777,2.3084757328033447,-3.799204111099243
1772884854788527000,8.664527099609375,10.37348461151123,1.8616160154342651,-3.005983352661133
1772884854805134300,8.68113427734375,8.215158462524414,2.0476579666137695,-1.0408778190612793
1772884854821758200,8.69775830078125,6.973283290863037,2.9754750728607178,2.014756679534912
1772884854838362400,8.7143623046875,6.086742401123047,3.314059257507324,2.7828526496887207
1772884854854968800,8.73096875,4.997410297393799,3.19441819190979,1.9609181880950928
1772884854871575600,8.747575439453126,4.325624942779541,2.9940192699432373,0.355932354927063
1772884854888183300,8.764183349609375,4.793421745300293,2.8420751094818115,-0.9439685344696045
1772884854904789800,8.780789794921875,5.771488189697266,1.786242127418518,-1.5882359743118286
1772884854921396700,8.797396728515626,5.104488849639893,1.4757733345031738,-1.9746768474578857
1772884854938004000,8.81400390625,4.058825492858887,2.2540390491485596,-0.8099704384803772
1772884854954610400,8.8306103515625,3.332603693008423,2.647658348083496,0.4785645306110382
1772884854971217400,8.847217529296875,3.2039895057678223,2.940778970718384,0.7112665176391602
1772884854987824400,8.863824462890625,4.013959884643555,3.544966697692871,0.4576273262500763
1772884855004432400,8.880432373046874,6.600003242492676,3.8297126293182373,0.05742774158716202
1772884855021038300,8.897038330078125,9.624530792236328,3.810570001602173,-0.6101697683334351
1772884855037645300,8.913645263671874,12.51745319366455,4.1491546630859375,-0.7339983582496643
1772884855054252500,8.93025244140625,13.123435974121094,4.603790760040283,-1.1359925270080566
1772884855070842600,8.946842529296875,11.959925651550293,5.550750255584717,-1.404586911201477
1772884855087466200,8.96346630859375,9.653244972229004,5.651846885681152,-0.4582255482673645
1772884855104074000,8.980073974609375,9.18006420135498,6.5042901039123535,0.6125625967979431
1772884855120680200,8.99668017578125,10.111470222473145,6.248258113861084,0.3858426511287689
1772884855137293600,9.01329345703125,11.003395080566406,6.332605361938477,-0.5850451588630676
1772884855153888000,9.029887939453126,12.27697467803955,7.2430739402771,-0.776470959186554
1772884855170488000,9.046488037109375,13.033106803894043,6.838686943054199,-1.2143574953079224
1772884855187108000,9.063108154296875,13.932807922363281,6.8859453201293945,-1.7784653902053833
1772884855203698200,9.0796982421875,14.509478569030762,7.3399834632873535,-1.506281852722168
1772884855220308200,9.09630810546875,13.975878715515137,6.546164512634277,-0.5377869009971619
1772884855236915500,9.11291552734375,12.41276741027832,5.621338367462158,-0.05742774158716202
1772884855253522400,9.1295224609375,10.188040733337402,4.703691005706787,0.3355933725833893
1772884855270129400,9.14612939453125,7.993224143981934,4.05403995513916,0.8452646136283875
1772884855286736100,9.162736083984376,6.387042045593262,3.4713873863220215,0.8644071817398071
1772884855303343400,9.17934326171875,6.449853420257568,3.222533941268921,0.9912267923355103
1772884855319967700,9.1959677734375,7.674978733062744,2.657827854156494,0.8703892230987549
1772884855336569300,9.2125693359375,7.228118896484375,2.8869404792785645,-0.23988047242164612
1772884855353178400,9.229178466796874,5.904888153076172,3.104687452316284,0.013160524889826775
1772884855369784600,9.24578466796875,4.25084924697876,3.582653760910034,0.21714866161346436
1772884855386392000,9.26239208984375,4.122833251953125,3.387638568878174,0.5228317379951477
1772884855402997800,9.278997802734375,5.408975601196289,3.826721668243408,-0.5335994362831116
