time,seconds_elapsed,z,y,x
1772884846343867100,0.2198671875,0.051522254943847656,0.04832601547241211,0.14226625859737396
1772884846360493800,0.236493896484375,-0.10726547241210938,0.07330036163330078,0.15209466218948364
1772884846377097700,0.25309765625,-0.12103939056396484,0.10692214965820312,0.1598200649023056
1772884846393702400,0.269702392578125,0.017197608947753906,0.0888819694519043,0.0815313383936882
1772884846410306300,0.286306396484375,0.17427635192871094,0.12641096115112305,0.07029935717582703
1772884846426920400,0.30292041015625,0.1415729522705078,0.04277324676513672,-0.043345704674720764
1772884846443522800,0.319522705078125,0.057178497314453125,0.04894256591796875,-0.021963659673929214
1772884846460131800,0.3361318359375,-0.051064491271972656,0.10966253280639648,0.030193742364645004
1772884846476737300,0.3527373046875,-0.1398000717163086,0.08924579620361328,0.01149953156709671
1772884846493346800,0.369346923828125,-0.3318815231323242,0.031087398529052734,0.0005605220794677734
1772884846509950200,0.3859501953125,-0.30835533142089844,0.026785850524902344,0.115311399102211
1772884846526529000,0.402529052734375,0.11373043060302734,0.07540607452392578,0.4300277531147003
1772884846543175200,0.419175048828125,0.17041873931884766,0.05643510818481445,0.19898661971092224
1772884846559774500,0.4357744140625,0.10655021667480469,-0.06824016571044922,0.09939628094434738
1772884846576378400,0.45237841796875,0.034499168395996094,-0.09048891067504883,0.12956880033016205
1772884846592987000,0.46898681640625,-0.1293621063232422,-0.0358586311340332,0.2173154056072235
1772884846609593900,0.48559375,-0.3529806137084961,0.018288612365722656,0.21689355373382568
1772884846626188000,0.50218798828125,-0.5036954879760742,0.030228614807128906,0.1883637011051178
1772884846642806300,0.51880615234375,-0.4202747344970703,0.02267742156982422,0.16876469552516937
1772884846659415600,0.53541552734375,-0.21968650817871094,-0.01244497299194336,0.16338439285755157
1772884846676027100,0.552027099609375,-0.02439594268798828,-0.048069000244140625,0.11975790560245514
1772884846692628000,0.5686279296875,0.0631265640258789,-0.11823034286499023,0.12271934747695923
1772884846709236700,0.58523681640625,-0.10163307189941406,-0.19852161407470703,0.11988572776317596
1772884846725828900,0.601828857421875,-0.3588705062866211,-0.39958858489990234,0.09371504932641983
1772884846742423300,0.61842333984375,-0.7450733184814453,-0.5309915542602539,0.17407754063606262
1772884846759044400,0.63504443359375,-1.2447748184204102,-0.612736701965332,0.3698033094406128
1772884846775651600,0.651651611328125,-1.6626434326171875,-0.6615262031555176,0.47257211804389954
1772884846792259600,0.668259521484375,-1.804581642150879,-0.7649936676025391,0.4170321822166443
1772884846808863000,0.684863037109375,-1.8664379119873047,-0.9491267204284668,0.15903276205062866
1772884846825473000,0.70147314453125,-1.996152400970459,-1.1602702140808105,0.06774009764194489
1772884846842081500,0.71808154296875,-2.0401248931884766,-1.3309664726257324,0.31833308935165405
1772884846858697200,0.734697265625,-2.2252235412597656,-1.527595043182373,0.7018090486526489
1772884846875305200,0.75130517578125,-2.752833366394043,-1.7387444972991943,1.2004948854446411
1772884846891915500,0.76791552734375,-3.350109100341797,-1.758275032043457,1.6199837923049927
1772884846908521000,0.78452099609375,-3.405611038208008,-1.8035800457000732,2.238776206970215
1772884846925110000,0.801110107421875,-2.6267881393432617,-1.6581928730010986,2.3093247413635254
1772884846941725200,0.81772509765625,-1.6987791061401367,-1.7831705808639526,1.9140740633010864
1772884846958330000,0.834330078125,-0.8647289276123047,-2.062997341156006,1.7727758884429932
1772884846974937900,0.850937744140625,0.5431394577026367,-1.8514864444732666,1.7379884719848633
1772884846991541500,0.86754150390625,2.712529182434082,-0.8329594135284424,1.0322601795196533
1772884847008149800,0.884149658203125,6.209052085876465,0.44397878646850586,-0.3990626335144043
1772884847024757200,0.90075732421875,8.688490867614746,0.5941407680511475,-1.4809980392456055
1772884847041364700,0.91736474609375,8.721640586853027,0.18196654319763184,-1.878781795501709
1772884847057959700,0.933959716796875,7.710806846618652,0.7810690402984619,-1.833877682685852
1772884847074592800,0.9505927734375,7.100342750549316,1.427161455154419,-1.5481785535812378
1772884847091195400,0.9671953125,6.394103050231934,0.9903984069824219,-1.1063016653060913
1772884847107809000,0.98380908203125,5.103154182434082,1.0873589515686035,-0.3959123492240906
1772884847124397600,1.0003974609375,3.2851171493530273,1.5420417785644531,0.16530582308769226
1772884847141019000,1.017018798828125,0.6964607238769531,1.8348865509033203,0.32833006978034973
1772884847157639400,1.033639404296875,-1.4052448272705078,1.5752663612365723,0.4010753035545349
1772884847174231600,1.0502314453125,-1.8739423751831055,0.5739278793334961,0.4242495894432068
1772884847190831900,1.066831787109375,-1.8847699165344238,-0.7821290493011475,0.26788246631622314
1772884847207439000,1.083439208984375,-1.0509824752807617,-2.0303256511688232,0.5933061838150024
1772884847224053000,1.100052978515625,1.15631103515625,-1.9930853843688965,0.8642935752868652
1772884847240644400,1.116644287109375,3.066065788269043,-1.5063791275024414,0.5691585540771484
1772884847257255700,1.133255615234375,2.8455429077148438,-1.232257604598999,-0.382560133934021
1772884847273859300,1.149859375,0.47891807556152344,-0.6353605389595032,-1.8670716285705566
1772884847290470100,1.16647021484375,-3.225494861602783,-0.14787626266479492,-3.502598285675049
1772884847307075800,1.183075927734375,-5.433981895446777,0.10437124967575073,-4.37580680847168
1772884847323670300,1.199670166015625,-6.322556972503662,0.6355847716331482,-4.780670166015625
1772884847340302600,1.216302490234375,-6.950685501098633,1.2636171579360962,-4.44726037979126
1772884847356897300,1.232897216796875,-7.276562213897705,1.791292667388916,-3.8777570724487305
1772884847373518600,1.2495185546875,-7.503084659576416,2.1248135566711426,-3.580364227294922
1772884847390090800,1.2660908203125,-7.518043518066406,1.901127576828003,-3.034602403640747
1772884847406737400,1.2827373046875,-7.043035507202148,1.6131021976470947,-2.6281490325927734
1772884847423337200,1.299337158203125,-6.255496978759766,1.4075533151626587,-2.2101104259490967
1772884847439945200,1.3159453125,-5.8416852951049805,1.2302190065383911,-1.7232182025909424
1772884847456521700,1.332521728515625,-6.4694318771362305,1.0238757133483887,-1.6285051107406616
1772884847473159700,1.34915966796875,-7.329686164855957,1.018367886543274,-1.9476768970489502
1772884847489747200,1.365747314453125,-6.868120193481445,1.3325718641281128,-1.7858426570892334
1772884847506374700,1.382374755859375,-4.880271911621094,1.6101216077804565,-1.0925819873809814
1772884847522980000,1.39897998046875,-2.2905893325805664,1.603384017944336,-0.13264083862304688
1772884847539585500,1.41558544921875,1.3707075119018555,1.4304783344268799,-0.18109983205795288
1772884847556179000,1.432178955078125,6.4373064041137695,0.7640022039413452,-0.4578545391559601
1772884847572799200,1.44879931640625,9.841025352478027,-0.3600044250488281,-0.9618796110153198
1772884847589409000,1.465408935546875,7.766202926635742,0.16120290756225586,-2.029461145401001
1772884847606017300,1.482017333984375,4.752601623535156,2.9521679878234863,-0.4457383155822754
1772884847622620400,1.498620361328125,4.387631416320801,7.213326930999756,2.240269184112549
1772884847639229200,1.515229248046875,5.83449649810791,9.327695846557617,5.3303070068359375
1772884847655836000,1.5318359375,10.65350341796875,8.37032699584961,6.719546318054199
1772884847672440300,1.5484404296875,18.185150146484375,4.664383411407471,6.955350399017334
1772884847689044200,1.565044189453125,24.99772834777832,1.0903215408325195,4.822994709014893
1772884847705655600,1.581655517578125,21.731460571289062,1.0670537948608398,0.9430716037750244
1772884847722248200,1.598248291015625,9.751938819885254,3.0437355041503906,-2.58556866645813
1772884847738856000,1.61485595703125,3.377964973449707,3.994948387145996,-3.0223727226257324
1772884847755462100,1.631462158203125,4.76108455657959,2.247025966644287,-0.5330789089202881
1772884847772070400,1.6480703125,5.085494041442871,-0.5397391319274902,1.4981454610824585
1772884847788679200,1.66467919921875,2.4862194061279297,-2.45712947845459,2.6344106197357178
1772884847805282800,1.68128271484375,0.10830020904541016,-2.1439833641052246,4.043190002441406
1772884847821895200,1.697895263671875,-2.289215087890625,-0.464719295501709,5.16949462890625
1772884847838516200,1.71451611328125,0.1344451904296875,0.5170859098434448,5.419809818267822
1772884847855140000,1.73114013671875,5.877099990844727,0.10099673271179199,2.306377410888672
1772884847871724800,1.747724853515625,5.179215431213379,-1.313297986984253,-1.610046148300171
1772884847888333300,1.764333251953125,0.24685192108154297,-0.15692079067230225,-3.0380935668945312
1772884847904942300,1.7809423828125,-5.97251033782959,0.8968180418014526,-2.7746739387512207
1772884847921550000,1.797550048828125,-9.249661445617676,1.6468833684921265,-1.428970456123352
1772884847938154200,1.814154296875,-10.579962730407715,1.1073687076568604,-1.2506208419799805
1772884847954751200,1.830751220703125,-9.887645721435547,0.23698866367340088,-1.931997299194336
1772884847971367200,1.8473671875,-8.505703926086426,-0.5923420190811157,-3.3356552124023438
1772884847987977500,1.8639775390625,-6.455418586730957,-1.2738105058670044,-4.718427658081055
1772884848004581400,1.880581298828125,-4.289343357086182,-1.7950692176818848,-4.980650901794434
1772884848021193000,1.89719287109375,-3.6668500900268555,-1.935225486755371,-3.9832944869995117
1772884848037797400,1.91379736328125,-4.943066596984863,-2.0562007427215576,-3.2487430572509766
1772884848054389200,1.93038916015625,-6.542603015899658,-2.3542661666870117,-2.791071653366089
1772884848071011300,1.94701123046875,-6.897841453552246,-2.5708837509155273,-2.4999940395355225
1772884848087618800,1.963618896484375,-6.477537631988525,-2.91986083984375,-2.493218421936035
1772884848104232000,1.98023193359375,-6.214389324188232,-3.358891487121582,-2.731844902038574
1772884848120832800,1.996832763671875,-6.070847034454346,-3.513178825378418,-2.413299798965454
1772884848137439000,2.01343896484375,-6.549320220947266,-3.550412178039551,-1.7033828496932983
1772884848154051300,2.03005126953125,-7.0923309326171875,-3.5966718196868896,-1.6678366661071777
1772884848170648000,2.04664794921875,-7.336761474609375,-3.8161780834198,-1.8116995096206665
1772884848187270400,2.0632705078125,-7.239752769470215,-3.7094829082489014,-1.4336942434310913
1772884848203868400,2.079868408203125,-7.069065093994141,-3.5781774520874023,-1.0954201221466064
1772884848220457700,2.096457763671875,-7.2667341232299805,-3.6330840587615967,-1.332772970199585
1772884848237068300,2.113068359375,-7.601078033447266,-3.697448492050171,-1.7649550437927246
1772884848261983200,2.137983154296875,-5.303154468536377,-1.806835412979126,-0.20864224433898926
1772884848278572800,2.15457275390625,-2.342285633087158,-1.0819780826568604,1.1242882013320923
1772884848295194000,2.171194091796875,2.8465089797973633,-0.3459939956665039,1.9527153968811035
1772884848311796200,2.187796142578125,7.588335037231445,0.026777267456054688,0.01688086986541748
1772884848328417500,2.20441748046875,10.88196849822998,1.811936378479004,-2.0975725650787354
1772884848345015300,2.221015380859375,9.471246719360352,6.006035327911377,-3.0774362087249756
1772884848361623600,2.23762353515625,4.535120010375977,12.684812545776367,-4.621722221374512
1772884848378242800,2.254242919921875,-0.1782970428466797,16.174652099609375,-3.793829917907715
1772884848394849300,2.270849365234375,1.9436120986938477,13.367841720581055,0.8860156536102295
1772884848411435800,2.287435791015625,4.0110063552856445,8.863317489624023,2.8159215450286865
1772884848428066800,2.30406689453125,9.55750846862793,3.554914951324463,3.074873924255371
1772884848444669400,2.32066943359375,11.7797212600708,-0.5357961654663086,3.1121304035186768
1772884848461280000,2.337280029296875,9.976238250732422,-0.2077956199645996,4.550130844116211
1772884848477882600,2.353882568359375,10.983349800109863,-0.44725608825683594,4.484016418457031
1772884848494487000,2.370487060546875,13.569716453552246,-2.2294604778289795,1.3342398405075073
1772884848511082800,2.387082763671875,11.736690521240234,-3.0719075202941895,-1.3401145935058594
1772884848527709400,2.40370947265625,6.12651252746582,-2.2215328216552734,-1.6118991374969482
1772884848544306700,2.420306640625,0.620427131652832,-1.3827948570251465,-0.9480193853378296
1772884848560915500,2.43691552734375,-3.294405460357666,-0.5566916465759277,-0.4227231740951538
1772884848577534500,2.453534423828125,-5.16421365737915,0.2466578483581543,-0.8135062456130981
1772884848594129200,2.470129150390625,-5.461459159851074,0.640315055847168,-1.8233689069747925
1772884848610744300,2.486744384765625,-5.492526054382324,0.460418701171875,-2.9554824829101562
1772884848627349500,2.503349609375,-5.300894737243652,0.08797740936279297,-3.4765639305114746
1772884848643952400,2.519952392578125,-5.110713005065918,0.0003752708435058594,-3.4882893562316895
1772884848660560100,2.53656005859375,-5.2580718994140625,-0.08649158477783203,-3.574859380722046
1772884848677171700,2.553171630859375,-5.819514274597168,-0.1850442886352539,-3.5012359619140625
1772884848693771800,2.569771728515625,-6.172806739807129,-0.2208118438720703,-3.4691014289855957
1772884848710382300,2.58638232421875,-6.559962272644043,-0.26551246643066406,-3.4860448837280273
1772884848726973200,2.60297314453125,-7.357563495635986,-0.2770576477050781,-3.048750877380371
1772884848743583200,2.619583251953125,-7.372339248657227,-0.21789765357971191,-2.106797218322754
1772884848760190000,2.63618994140625,-5.892544269561768,-0.38541579246520996,-0.9797229766845703
1772884848776796400,2.65279638671875,-4.918661117553711,-0.1460738182067871,-0.039896249771118164
1772884848793407000,2.669406982421875,-4.266153335571289,-0.010941505432128906,0.47579026222229004
1772884848810011100,2.68601123046875,-2.9622931480407715,0.014899253845214844,1.1347813606262207
1772884848826633000,2.702633056640625,0.2266702651977539,0.05690765380859375,1.0915459394454956
1772884848843230500,2.71923046875,2.9416112899780273,-0.10302352905273438,0.6074001789093018
1772884848859851800,2.735851806640625,5.643708229064941,-0.6016149520874023,-1.0837693214416504
1772884848876439800,2.752439697265625,8.651887893676758,-1.019073486328125,-1.1003862619400024
1772884848893074700,2.76907470703125,10.88614559173584,1.449059009552002,0.15315981209278107
1772884848909649200,2.785649169921875,12.069045066833496,4.769057750701904,1.650749921798706
1772884848926274300,2.8022744140625,10.323463439941406,4.049718856811523,0.2635694146156311
1772884848942876400,2.81887646484375,7.6455488204956055,2.517162799835205,-1.3303073644638062
1772884848959491800,2.835491943359375,3.0399866104125977,1.348973274230957,-0.7618009448051453
1772884848976093700,2.85209375,-1.5898256301879883,1.2807612419128418,-0.10159870982170105
1772884848992685600,2.868685546875,-3.651670455932617,-0.507260799407959,-0.25142571330070496
1772884849009305900,2.885305908203125,-4.30876350402832,-2.6852712631225586,0.41392195224761963
1772884849025917400,2.90191748046875,-2.304487705230713,-3.006446361541748,2.1939330101013184
1772884849042520300,2.918520263671875,2.203632354736328,-2.5817689895629883,2.844459056854248
1772884849059125800,2.935125732421875,5.35739803314209,-3.1004786491394043,2.1552000045776367
1772884849075739600,2.95173974609375,5.456084251403809,-3.0564627647399902,0.6462041139602661
1772884849092342800,2.9683427734375,1.2221002578735352,-1.8589916229248047,-1.7869089841842651
1772884849108946400,2.984946533203125,-3.9850807189941406,-1.5431830883026123,-2.4847497940063477
1772884849125560000,3.00156005859375,-6.0345001220703125,-0.8213422298431396,-2.460097551345825
1772884849142163500,3.01816357421875,-6.617945671081543,-0.7646872997283936,-1.524667501449585
1772884849158763800,3.034763671875,-6.594825744628906,-0.8551506996154785,-0.7757181525230408
1772884849175385600,3.051385498046875,-6.46013069152832,-0.6883125305175781,-0.9181212186813354
1772884849191984600,3.067984619140625,-6.261693000793457,-0.6549739837646484,-0.9906894564628601
1772884849208590000,3.084590087890625,-6.2536725997924805,-0.6351461410522461,-0.4166945219039917
1772884849225185300,3.101185302734375,-5.459038734436035,-0.033935546875,0.2991008758544922
1772884849241791700,3.117791748046875,-3.7237401008605957,0.9713134765625,1.0153816938400269
1772884849258403600,3.134403564453125,-0.38989925384521484,2.000889301300049,1.522572636604309
1772884849274988500,3.150988525390625,4.733564376831055,2.3494443893432617,1.2612138986587524
1772884849291609600,3.167609619140625,9.697291374206543,0.5642876625061035,0.7563365697860718
1772884849308219100,3.18421923828125,11.181070327758789,-0.3606534004211426,-0.5191972255706787
1772884849324831500,3.20083154296875,7.658624649047852,0.8563942909240723,-1.9171597957611084
1772884849341422600,3.217422607421875,1.9693708419799805,2.987967014312744,-1.5408482551574707
1772884849358042600,3.234042724609375,-0.2274303436279297,2.481475353240967,-0.48477691411972046
1772884849374652700,3.250652587890625,1.8789091110229492,1.2870211601257324,-0.7234658002853394
1772884849391249400,3.26724951171875,3.4523820877075195,-0.15154218673706055,0.21864475309848785
1772884849407878400,3.28387841796875,4.458333969116211,-1.2209148406982422,0.6595367193222046
1772884849424487700,3.30048779296875,4.3776092529296875,-2.9830245971679688,0.9173424243927002
1772884849441090800,3.3170908203125,1.9217023849487305,-3.414841890335083,0.8728793263435364
1772884849457698300,3.3336982421875,-1.573653221130371,-2.57962703704834,1.296600103378296
1772884849474305500,3.350305419921875,-2.4089794158935547,-1.4665193557739258,1.526917815208435
1772884849490894600,3.36689453125,-0.19715213775634766,-0.7696011066436768,1.0081363916397095
1772884849507519500,3.38351953125,0.6168270111083984,-0.5284593105316162,0.45459699630737305
1772884849524130600,3.400130615234375,-0.6216745376586914,-0.15154051780700684,0.025159835815429688
1772884849540733000,3.41673291015625,-4.191591262817383,0.12379288673400879,-0.4984093904495239
1772884849557340400,3.43334033203125,-7.427614212036133,0.31236791610717773,-0.9882552623748779
1772884849573948000,3.449947998046875,-8.423508644104004,0.30933594703674316,-1.2093491554260254
1772884849590549500,3.466549560546875,-7.290283203125,0.15378546714782715,-0.9785491824150085
1772884849607161300,3.483161376953125,-6.803771018981934,0.4400012493133545,-0.30557936429977417
1772884849623773200,3.499773193359375,-5.404490947723389,0.904799222946167,0.24836915731430054
1772884849640375300,3.516375244140625,-4.22947883605957,1.7515692710876465,0.4512442946434021
1772884849656982300,3.532982177734375,-2.6618614196777344,2.151571750640869,0.46577727794647217
1772884849673588700,3.549588623046875,0.8428678512573242,3.0550217628479004,0.5581139326095581
1772884849690219300,3.56621923828125,6.00056266784668,2.595987558364868,0.45808589458465576
1772884849706801400,3.582801513671875,11.740439414978027,0.9644107818603516,0.8326430320739746
1772884849723415800,3.599415771484375,12.683758735656738,0.035271644592285156,-0.44416508078575134
1772884849740017400,3.616017333984375,7.278175354003906,1.781947135925293,-2.2500462532043457
1772884849756621000,3.63262109375,4.0740766525268555,4.106115818023682,-2.538605213165283
1772884849806430500,3.682430419921875,6.19559383392334,0.035436153411865234,1.9795035123825073
1772884849823037400,3.699037353515625,4.250914573669434,0.5714898109436035,2.949510335922241
1772884849839644400,3.71564453125,3.5837574005126953,0.21304655075073242,2.379002332687378
1772884849856251600,3.732251708984375,2.989893913269043,-1.0853281021118164,1.3831976652145386
1772884849872858600,3.748858642578125,1.0299863815307617,-1.710622787475586,0.6028342247009277
1772884849889478000,3.765477783203125,-1.4120359420776367,-1.4101660251617432,0.4703691005706787
1772884849906085400,3.78208544921875,-4.197429656982422,-0.9906067848205566,-0.03054952621459961
1772884849922698000,3.798697998046875,-5.760231971740723,-1.0210061073303223,-0.41536176204681396
1772884849939300600,3.815300537109375,-5.8936638832092285,-0.8684086799621582,-0.4655311107635498
1772884849955907000,3.831906982421875,-5.569778919219971,-0.7504069805145264,-0.8455015420913696
1772884849972514000,3.84851416015625,-4.819214820861816,-0.9178423881530762,-1.142234206199646
1772884849989119200,3.865119140625,-5.30144739151001,-1.4886572360992432,-1.6787647008895874
1772884850005729300,3.881729248046875,-7.1128058433532715,-2.04229736328125,-2.741990089416504
1772884850022336500,3.89833642578125,-8.703936576843262,-2.1018433570861816,-3.404080867767334
1772884850038942500,3.9149423828125,-8.829019546508789,-1.6285529136657715,-2.8960957527160645
1772884850055549000,3.931548828125,-7.772895336151123,-0.9785237312316895,-1.569901704788208
1772884850072139500,3.948139404296875,-7.12891960144043,0.10708951950073242,0.03572660684585571
1772884850088763600,3.964763671875,-5.75902795791626,1.5216670036315918,1.4892456531524658
1772884850105370000,3.9813701171875,-2.5692005157470703,1.920792579650879,1.8741137981414795
1772884850121977600,3.9979775390625,2.653881072998047,1.0706605911254883,1.2108184099197388
1772884850138584600,4.01458447265625,8.17028522491455,0.046532630920410156,0.5983763933181763
1772884850155191300,4.03119140625,10.498008728027344,-0.28165531158447266,-1.2166975736618042
1772884850171798500,4.047798583984375,7.262047290802002,1.9135689735412598,-3.4623167514801025
1772884850188407000,4.064406982421875,3.268871784210205,5.711009979248047,-4.011129379272461
1772884850205012700,4.0810126953125,-0.26400279998779297,6.733211517333984,-4.270669937133789
1772884850221617700,4.09761767578125,5.058039665222168,3.9408721923828125,-2.6946229934692383
1772884850238226700,4.114226806640625,10.027530670166016,2.1790218353271484,-0.5014346837997437
1772884850254833200,4.130833251953125,11.45494556427002,0.8758101463317871,1.5091339349746704
1772884850271423500,4.147423583984375,11.116573333740234,-0.9414973258972168,2.6142001152038574
1772884850288030500,4.164030517578125,7.734628677368164,-1.5539193153381348,2.176558494567871
1772884850304640500,4.180640625,1.5824193954467773,-1.9165363311767578,1.1760754585266113
1772884850321251000,4.1972509765625,-3.107516288757324,-2.2827253341674805,0.5932098627090454
1772884850337854700,4.213854736328125,-4.8717780113220215,-2.32987117767334,0.6628572940826416
1772884850354462000,4.2304619140625,-4.6034369468688965,-1.7343189716339111,0.8498026132583618
1772884850371068400,4.247068359375,-5.007440567016602,-1.0568861961364746,0.6084011793136597
1772884850387672800,4.2636728515625,-6.2919487953186035,-0.6087193489074707,-0.09560465812683105
1772884850404299000,4.280299072265625,-6.990311622619629,-0.320605993270874,-1.0539038181304932
1772884850420907800,4.29690771484375,-7.558661460876465,-0.6964678764343262,-2.0279574394226074
1772884850437511000,4.313510986328125,-8.378605842590332,-1.0998926162719727,-2.6005873680114746
1772884850454117600,4.33011767578125,-8.696028709411621,-1.2575571537017822,-2.541651487350464
1772884850470724400,4.346724365234375,-8.741403579711914,-1.3806743621826172,-2.1364948749542236
1772884850487310600,4.363310546875,-9.071466445922852,-1.3865325450897217,-1.5421556234359741
1772884850503938600,4.3799384765625,-8.249797821044922,-1.3884918689727783,-0.7649410963058472
1772884850520550000,4.3965498046875,-7.68377685546875,-0.4324758052825928,0.8220321536064148
1772884850537152500,4.413152587890625,-5.910039901733398,0.668053150177002,2.9098243713378906
1772884850553759500,4.429759521484375,-0.4174642562866211,1.204763412475586,4.323025703430176
1772884850570367000,4.446366943359375,7.73830509185791,-0.6686549186706543,4.799658298492432
1772884850586969600,4.462969482421875,13.550047874450684,-1.9626741409301758,3.585697650909424
1772884850603580400,4.479580322265625,10.393613815307617,0.1433577537536621,0.9940261244773865
1772884850620191500,4.49619140625,1.5900239944458008,4.859793186187744,-0.7395240068435669
1772884850636794400,4.51279443359375,-4.4457855224609375,6.551271915435791,0.401803582906723
1772884850653401600,4.529401611328125,-4.474196434020996,5.994291305541992,0.5958883166313171
1772884850670008800,4.5460087890625,3.4990615844726562,3.480832099914551,0.2135121077299118
1772884850686610400,4.5626103515625,13.417866706848145,-1.2972073554992676,0.6995329856872559
1772884850703223000,4.57922314453125,16.915603637695312,-3.340238332748413,-0.09931570291519165
1772884850719832000,4.59583203125,9.376761436462402,-2.1446049213409424,-0.14772677421569824
1772884850736436200,4.612436279296875,0.9223995208740234,-1.4134917259216309,1.6790940761566162
1772884850753043500,4.62904345703125,-3.331292152404785,0.6799051761627197,1.7703657150268555
1772884850769633500,4.645633544921875,1.825057029724121,1.1724400520324707,1.1388943195343018
1772884850786245400,4.662245361328125,6.0644941329956055,0.19196271896362305,0.7871116399765015
1772884850802851000,4.67885107421875,5.542996406555176,0.5359231233596802,0.09415662288665771
1772884850819456000,4.6954560546875,1.2451581954956055,1.306849718093872,-0.7402529716491699
1772884850836064800,4.712064697265625,-4.481205463409424,1.6862337589263916,-1.5610036849975586
1772884850852671500,4.72867138671875,-8.344098091125488,1.693547010421753,-1.9341588020324707
1772884850869278700,4.74527880859375,-8.951037406921387,2.0592844486236572,-2.6257359981536865
1772884850885902600,4.761902587890625,-8.127388000488281,1.920527696609497,-2.3695569038391113
1772884850902500400,4.778500244140625,-6.621387481689453,1.966243028640747,-1.7560046911239624
1772884850919119400,4.795119384765625,-5.927147388458252,1.997788667678833,-0.793078601360321
1772884850935721000,4.811720947265625,-5.131585597991943,2.2166748046875,0.36040639877319336
1772884850952327200,4.8283271484375,-3.9108505249023438,2.574936866760254,0.9250741004943848
1772884850968934400,4.844934326171875,-2.008519172668457,2.541687250137329,0.6312960982322693
1772884850985543200,4.861543212890625,1.5583009719848633,1.8524577617645264,0.494913786649704
1772884851002152400,4.87815234375,5.981114387512207,0.5639019012451172,0.9790025949478149
1772884851018758000,4.8947578125,9.982200622558594,-0.5462734699249268,1.4981383085250854
1772884851035362800,4.91136279296875,11.373705863952637,-1.346358299255371,0.5808033347129822
1772884851051969300,4.92796923828125,8.58297348022461,-1.1339435577392578,-0.5179246664047241
1772884851068576500,4.944576416015625,3.049589157104492,1.456946849822998,-0.11795338988304138
1772884851085184000,4.96118408203125,-1.6120953559875488,4.359688758850098,0.08750629425048828
1772884851101790200,4.977790283203125,-0.7267494201660156,4.79036283493042,-1.4812244176864624
1772884851118397700,4.994397705078125,4.9332380294799805,1.508636474609375,-1.5747982263565063
1772884851135019800,5.011019775390625,10.261833190917969,-2.7317209243774414,0.3649614453315735
1772884851151608600,5.027608642578125,9.946135520935059,-4.132268905639648,1.3052583932876587
1772884851168221200,5.04422119140625,5.322848320007324,-3.725557327270508,2.2178616523742676
1772884851184822500,5.060822509765625,0.7075204849243164,-2.7554287910461426,2.804874897003174
1772884851201432300,5.077432373046875,0.4160184860229492,-2.313185214996338,2.40027117729187
1772884851218039600,5.09403955078125,1.8148994445800781,-3.037433624267578,1.1458923816680908
1772884851234646300,5.110646240234375,0.6314487457275391,-3.04010009765625,-0.4556668996810913
1772884851251253000,5.1272529296875,-2.0180397033691406,-2.5038070678710938,-1.0325778722763062
1772884851267843300,5.14384326171875,-3.986213207244873,-1.969325065612793,-0.25098204612731934
1772884851284453400,5.160453369140625,-5.399443626403809,-1.708064317703247,0.4739381670951843
1772884851301060600,5.177060546875,-6.249423027038574,-2.1131038665771484,0.2512098550796509
1772884851317667800,5.193667724609375,-6.677433013916016,-2.7004592418670654,-0.12589168548583984
1772884851334274800,5.21027490234375,-6.764673233032227,-2.8549442291259766,-0.2658758759498596
1772884851350881500,5.226881591796875,-6.445830345153809,-2.9385716915130615,-0.25209081172943115
1772884851367488800,5.24348876953125,-6.158052921295166,-2.958296298980713,-0.08176529407501221
1772884851384117500,5.260117431640625,-6.0129194259643555,-2.7889297008514404,0.012618333101272583
1772884851400716300,5.27671630859375,-6.0476975440979,-2.454686403274536,-0.06872358918190002
1772884851417319200,5.293319091796875,-5.71073055267334,-2.0456438064575195,0.1006309986114502
1772884851433931000,5.309930908203125,-4.006627082824707,-1.03175687789917,1.1464112997055054
1772884851450537200,5.326537109375,-0.9439482688903809,-0.04855537414550781,1.892591118812561
1772884851467144400,5.34314453125,3.6399030685424805,0.46248626708984375,2.3268063068389893
1772884851483735300,5.3597353515625,7.457425594329834,0.6501379013061523,1.3523427248001099
1772884851500358100,5.376358154296875,8.224616050720215,0.9013876914978027,-0.676478385925293
1772884851516970000,5.392969970703125,6.588090896606445,1.8215923309326172,-2.1321911811828613
1772884851533572000,5.409572021484375,4.179538726806641,3.080687999725342,-1.4049336910247803
1772884851550179000,5.426178955078125,1.8030991554260254,3.710885524749756,0.0475437305867672
1772884851566786600,5.44278662109375,-0.422910213470459,4.494121551513672,0.19038015604019165
1772884851583390000,5.459389892578125,-2.173520088195801,3.874908924102783,-0.6965435147285461
1772884851599983900,5.47598388671875,-1.8296093940734863,3.365873336791992,-1.7241398096084595
1772884851616611300,5.492611328125,2.5942068099975586,1.9837841987609863,-1.7934107780456543
1772884851633214700,5.509214599609375,8.252283096313477,-0.5972342491149902,1.1735094785690308
1772884851649821400,5.525821533203125,11.442941665649414,-1.1331267356872559,2.8872780799865723
1772884851666428400,5.542428466796875,10.284367561340332,-2.467573881149292,3.195378541946411
1772884851683031000,5.559031005859375,5.5988664627075195,-2.4092769622802734,1.3765215873718262
1772884851699642600,5.575642578125,0.8238658905029297,-1.6307921409606934,-0.7108550667762756
1772884851716254000,5.59225390625,-2.265711784362793,-1.1265854835510254,-0.9752922654151917
1772884851732835800,5.6088359375,-4.703843116760254,-1.1861658096313477,-0.6615333557128906
1772884851749460000,5.6254599609375,-6.447451591491699,-1.5064113140106201,-0.44623833894729614
1772884851766057000,5.642056884765625,-7.147110939025879,-2.0391464233398438,-0.2041909545660019
1772884851782663400,5.658663330078125,-6.494256019592285,-2.513732433319092,0.04960455000400543
1772884851799268600,5.6752685546875,-4.64337158203125,-2.5764260292053223,0.6293774247169495
1772884851815880000,5.6918798828125,-3.834543228149414,-2.792508602142334,0.7355121374130249
1772884851832484600,5.708484619140625,-5.050438404083252,-2.9776313304901123,-0.17468810081481934
1772884851849091600,5.725091552734375,-6.736208915710449,-3.0448055267333984,-0.8144519925117493
1772884851865715500,5.741715576171875,-7.579742431640625,-3.1269989013671875,-0.9726948142051697
1772884851882315500,5.7583154296875,-6.870875358581543,-2.9557323455810547,-0.6277534365653992
1772884851898926300,5.77492626953125,-4.552554130554199,-2.2461864948272705,-0.34711670875549316
1772884851915537700,5.79153759765625,-0.6661977767944336,-1.2923626899719238,0.44337198138237
1772884851932140500,5.808140625,4.248832702636719,0.057621002197265625,0.9260889887809753
1772884851948747300,5.824747314453125,7.844882011413574,1.006256103515625,0.42874664068222046
1772884851965354200,5.841354248046875,8.654947280883789,1.6847953796386719,-0.3207229971885681
1772884851981958400,5.85795849609375,7.622365951538086,2.7523789405822754,-0.07719889283180237
1772884851998569500,5.874569580078125,4.819190979003906,3.5952210426330566,-0.16589707136154175
1772884852015177000,5.891177001953125,2.7068004608154297,3.938778877258301,-1.5088841915130615
1772884852031782000,5.907781982421875,1.79058837890625,3.2223806381225586,-1.5935189723968506
1772884852048389400,5.924389404296875,0.7055425643920898,2.93509578704834,-0.7352955341339111
1772884852064996600,5.94099658203125,1.4175405502319336,3.219940662384033,0.9458372592926025
1772884852081581000,5.9575810546875,2.868913173675537,2.2067174911499023,1.9830058813095093
1772884852098211000,5.974211181640625,4.137931823730469,0.7700920104980469,2.13681697845459
1772884852114821600,5.990821533203125,5.39947509765625,-0.8736114501953125,2.200299024581909
1772884852131423700,6.007423828125,5.349637985229492,-2.0732908248901367,1.4854751825332642
1772884852148033300,6.024033203125,2.9947853088378906,-2.944004535675049,0.6313449740409851
1772884852164636400,6.040636474609375,-1.0009078979492188,-3.190122604370117,-0.32763782143592834
1772884852181256700,6.057256591796875,-4.37465238571167,-2.97312593460083,-1.2705755233764648
1772884852197852700,6.073852783203125,-5.980781078338623,-2.857637405395508,-1.9802477359771729
1772884852214457900,6.090457763671875,-6.210893630981445,-2.6805672645568848,-2.3666577339172363
1772884852231065900,6.10706591796875,-5.469339370727539,-2.354015827178955,-1.9910691976547241
1772884852247656200,6.12365625,-4.377213954925537,-2.1955389976501465,-1.1628949642181396
1772884852264266200,6.140266357421875,-3.6581506729125977,-2.099531888961792,-0.3887830972671509
1772884852280874800,6.156874755859375,-3.7194976806640625,-2.0973544120788574,0.14142104983329773
1772884852297479000,6.17347900390625,-4.092480659484863,-2.2167725563049316,0.4507553279399872
1772884852314087700,6.190087646484375,-3.9760046005249023,-2.257772445678711,0.7370856404304504
1772884852330690600,6.206690673828125,-3.2823128700256348,-2.055590867996216,0.8770239949226379
1772884852347305000,6.223304931640625,-1.8353633880615234,-1.6693305969238281,0.8148375749588013
1772884852363925800,6.23992578125,0.6882143020629883,-1.277045726776123,0.8935567140579224
1772884852380529400,6.256529296875,3.848695755004883,0.030768871307373047,0.4495704174041748
1772884852397136100,6.27313623046875,5.887622833251953,1.5198516845703125,-0.06088286638259888
1772884852413743000,6.2897431640625,6.23737907409668,3.0535078048706055,-0.19831611216068268
1772884852430349800,6.306349853515625,5.538230895996094,4.181393623352051,0.5765256881713867
1772884852446957000,6.32295703125,3.1712498664855957,4.449846267700195,0.7104907035827637
1772884852463546600,6.339546630859375,0.7960009574890137,4.902145862579346,-0.7965260148048401
1772884852480155100,6.356155029296875,-1.457746982574463,4.18792200088501,-3.0169007778167725
1772884852496760300,6.37276025390625,-2.0042800903320312,2.817777156829834,-3.8066556453704834
1772884852513372200,6.3893720703125,1.7810859680175781,1.8709526062011719,-2.2955517768859863
1772884852529978000,6.40597802734375,7.205016136169434,0.10636234283447266,0.31442251801490784
1772884852546585000,6.422585205078125,9.210197448730469,-1.9942970275878906,2.2715840339660645
1772884852563192300,6.4391923828125,5.959805488586426,-2.7783055305480957,2.5215587615966797
1772884852579799000,6.455799072265625,0.7635250091552734,-2.5317554473876953,1.9268243312835693
1772884852596406300,6.47240625,-2.1974973678588867,-2.223440408706665,1.1964874267578125
1772884852613030400,6.489030517578125,-2.049471855163574,-2.065664291381836,0.4215746521949768
1772884852629633800,6.5056337890625,-1.3210124969482422,-2.2947492599487305,-0.005817770957946777
1772884852646240500,6.522240478515625,-1.8376035690307617,-2.6158857345581055,-0.2778109312057495
1772884852662848000,6.538847900390625,-3.6000571250915527,-2.6285197734832764,-0.8680760264396667
1772884852679454700,6.555454833984375,-5.048471927642822,-2.515511989593506,-1.2476167678833008
1772884852696062000,6.57206201171875,-5.793455600738525,-2.437352180480957,-1.0372314453125
1772884852712669000,6.5886689453125,-6.150428771972656,-2.3951752185821533,-0.7538361549377441
1772884852729276200,6.605276123046875,-6.365258693695068,-2.662546157836914,-0.5511384010314941
1772884852745865500,6.621865478515625,-6.592717170715332,-2.5913608074188232,-0.1972714513540268
1772884852762476000,6.63847607421875,-6.276259422302246,-2.2147884368896484,0.4524248242378235
1772884852779083000,6.6550830078125,-5.48563289642334,-1.911531686782837,1.2017532587051392
1772884852795689700,6.671689697265625,-2.9278059005737305,-1.1805691719055176,1.4946128129959106
1772884852812297000,6.688296875,1.5048565864562988,-0.48898792266845703,1.7967463731765747
1772884852828904000,6.704904052734375,5.373985290527344,0.6125950813293457,1.3589355945587158
1772884852845528000,6.721528076171875,7.426313400268555,1.9573626518249512,0.24058371782302856
1772884852862131500,6.73813134765625,6.34773063659668,2.891289234161377,-0.6253017783164978
1772884852878738400,6.754738525390625,3.804452419281006,3.886178970336914,-0.9040455222129822
1772884852895346000,6.771345947265625,1.0172996520996094,4.413735389709473,-0.8957170248031616
1772884852911952600,6.78795263671875,-0.18782377243041992,4.520781993865967,-1.2390642166137695
1772884852928547600,6.804547607421875,0.24523401260375977,3.6766510009765625,-0.8979600071907043
1772884852945166600,6.82116650390625,2.1779026985168457,3.6429548263549805,0.13424861431121826
1772884852961766000,6.837765869140625,5.849198341369629,3.050126075744629,2.084670066833496
1772884852978380300,6.85438037109375,8.648605346679688,1.9925570487976074,2.88435697555542
1772884852994987800,6.87098779296875,8.267631530761719,0.6925492286682129,2.2816386222839355
1772884853011594500,6.887594482421875,5.16253662109375,-0.5094237327575684,1.0191749334335327
1772884853028201700,6.90420166015625,1.1162128448486328,-1.160116195678711,-0.3503607511520386
1772884853044819500,6.9208193359375,-1.7503242492675781,-1.3384079933166504,-1.2973618507385254
1772884853061415400,6.93741552734375,-2.554629325866699,-1.467181921005249,-1.0943454504013062
1772884853078022100,6.954022216796875,-2.2022414207458496,-1.2533595561981201,-0.06559230387210846
1772884853094613000,6.970613037109375,-1.6276054382324219,-1.2140922546386719,0.9539939761161804
1772884853111236600,6.987236572265625,-1.2260308265686035,-1.6598930358886719,1.504639744758606
1772884853127843600,7.003843505859375,-2.3199539184570312,-2.2265782356262207,0.9259501695632935
1772884853144450300,7.0204501953125,-3.945127487182617,-2.3461992740631104,0.33615267276763916
1772884853161057500,7.0370576171875,-5.441347599029541,-2.258178234100342,0.012349605560302734
1772884853177664300,7.053664306640625,-6.0963263511657715,-2.3159308433532715,-0.17378884553909302
1772884853194271500,7.070271484375,-6.030963897705078,-2.4174561500549316,-0.041384220123291016
1772884853210878500,7.08687841796875,-5.251187324523926,-2.4018797874450684,0.27138882875442505
1772884853227485400,7.1034853515625,-3.637704849243164,-2.2090582847595215,0.691535472869873
1772884853244075000,7.120074951171875,-1.4743471145629883,-1.8412353992462158,1.0807292461395264
1772884853260685600,7.136685546875,1.3138427734375,-1.0382966995239258,0.9673144817352295
1772884853277292500,7.15329248046875,3.5268754959106445,-0.07298660278320312,0.6628908514976501
1772884853293899500,7.1698994140625,4.210099220275879,0.9460101127624512,0.020765244960784912
1772884853310506500,7.186506591796875,3.8133392333984375,1.5934295654296875,-0.01887241005897522
1772884853327113500,7.203113525390625,3.0726871490478516,2.0413174629211426,0.16078853607177734
1772884853343737900,7.21973779296875,2.6305503845214844,2.1210055351257324,0.09457574784755707
1772884853360341000,7.236341064453125,2.6627297401428223,2.2459774017333984,-0.3490501642227173
1772884853376947700,7.25294775390625,2.251509666442871,2.5387253761291504,-1.0600535869598389
1772884853393557000,7.269556884765625,0.9045872688293457,3.2769012451171875,-1.2410956621170044
1772884853410160400,7.286160400390625,0.11132287979125977,3.713331699371338,-0.7485780119895935
1772884853426769200,7.30276904296875,1.5319194793701172,3.4310622215270996,-0.08667626976966858
1772884853443373300,7.319373291015625,4.036208152770996,2.8960413932800293,0.32757267355918884
1772884853459986000,7.33598583984375,5.121760845184326,1.6986665725708008,0.5679821968078613
1772884853476590000,7.352590087890625,3.894824981689453,0.3400082588195801,0.43635261058807373
1772884853493197600,7.369197509765625,1.3007116317749023,-0.7687134742736816,0.24280065298080444
1772884853509804500,7.385804443359375,-1.3837475776672363,-1.6725091934204102,0.19585391879081726
1772884853526413600,7.40241357421875,-2.5171823501586914,-2.2426552772521973,-0.10107706487178802
1772884853543018000,7.41901806640625,-2.393054485321045,-2.9578027725219727,-0.08927963674068451
1772884853559625000,7.435625,-2.4441161155700684,-3.505826711654663,0.007653642445802689
1772884853576232000,7.45223193359375,-2.7755489349365234,-3.691030502319336,0.14498937129974365
1772884853592839200,7.468839111328125,-3.3851242065429688,-3.642181873321533,0.36697834730148315
1772884853609445600,7.485445556640625,-4.163690090179443,-3.555507183074951,0.649081289768219
1772884853626053400,7.502053466796875,-4.519155502319336,-3.514246940612793,0.6176562309265137
1772884853642659600,7.51865966796875,-4.4441328048706055,-3.4743380546569824,0.3294016122817993
1772884853659266600,7.5352666015625,-4.532357692718506,-3.3076133728027344,0.19459813833236694
1772884853675873800,7.551873779296875,-4.485348701477051,-2.4637627601623535,-0.03942951560020447
1772884853692481000,7.56848095703125,-3.4311108589172363,-1.4927997589111328,-0.48434320092201233
1772884853709087500,7.58508740234375,-1.1589326858520508,-0.43876075744628906,-0.6219956278800964
1772884853725677800,7.601677734375,1.185652732849121,0.9694032669067383,-0.5879982113838196
1772884853742288000,7.618287841796875,2.633786201477051,2.35432767868042,-0.45889467000961304
1772884853758894800,7.634894775390625,2.9955315589904785,3.0463061332702637,-0.2478090226650238
1772884853775502000,7.651502197265625,2.9375009536743164,2.9507699012756348,-0.1702895164489746
1772884853792108800,7.66810888671875,2.8876428604125977,2.611405372619629,-0.3344005346298218
1772884853808715800,7.6847158203125,2.663936138153076,3.035764694213867,-0.8644858598709106
1772884853825323000,7.701322998046875,1.9574308395385742,3.7561678886413574,-1.5242727994918823
1772884853841947400,7.717947509765625,2.363010883331299,4.095755100250244,-1.6028506755828857
1772884853858550300,7.73455029296875,4.146107196807861,4.171568393707275,-0.9100412130355835
1772884853875157200,7.7511572265625,5.792652606964111,3.264199733734131,0.24090006947517395
1772884853891760000,7.767760009765625,6.215149879455566,1.6215448379516602,1.0267634391784668
1772884853908375600,7.78437548828125,4.030776500701904,0.38507604598999023,0.8443039655685425
1772884853924978700,7.800978759765625,0.48760128021240234,-0.28850698471069336,0.7458750009536743
1772884853941586000,7.8175859375,-2.5933523178100586,-0.7571988105773926,0.9373281598091125
1772884853958178300,7.83417822265625,-4.535673141479492,-1.2765707969665527,1.1179978847503662
1772884853974798800,7.850798828125,-5.496476173400879,-1.872295618057251,1.0374702215194702
1772884853991406800,7.86740673828125,-5.889860153198242,-2.1720778942108154,0.47624436020851135
1772884854008013000,7.884012939453125,-5.610895156860352,-2.076319694519043,-0.300131618976593
1772884854024620500,7.90062060546875,-4.186164379119873,-2.3198561668395996,-0.7617473006248474
1772884854041227500,7.9172275390625,-3.0653791427612305,-2.954284191131592,-0.7042807340621948
1772884854057834000,7.933833984375,-3.26615571975708,-2.9945318698883057,-0.8408076763153076
1772884854074441200,7.950441162109375,-4.662228584289551,-2.7969884872436523,-0.7260991334915161
1772884854091048000,7.9670478515625,-5.943078994750977,-2.4284720420837402,-0.13286447525024414
1772884854107655700,7.98365576171875,-6.138460636138916,-1.97906494140625,0.4736122190952301
1772884854124262000,8.000261962890624,-5.349384307861328,-1.5460736751556396,0.5232094526290894
1772884854140852500,8.0168525390625,-3.4777822494506836,-1.0754752159118652,0.4301932454109192
1772884854157476400,8.033476318359375,-0.10969829559326172,0.12460184097290039,0.3866298198699951
1772884854174083000,8.0500830078125,3.753535270690918,1.6286954879760742,0.018784578889608383
1772884854190689800,8.066689697265625,6.0234527587890625,2.959763526916504,-1.3638874292373657
1772884854207297500,8.083297607421875,5.247849464416504,2.7314395904541016,-2.112596035003662
1772884854223887000,8.09988720703125,2.6842031478881836,2.5542821884155273,-1.5538218021392822
1772884854240497200,8.1164970703125,1.1678004264831543,2.1858224868774414,-0.7504225373268127
1772884854257104100,8.133104248046875,2.2306618690490723,0.9996376037597656,1.0342185497283936
1772884854273711400,8.14971142578125,4.0017290115356445,-1.016767978668213,2.383016586303711
1772884854290318000,8.166318115234375,6.366268157958984,-1.4095306396484375,1.5433399677276611
1772884854306925300,8.18292529296875,8.306530952453613,-1.1585841178894043,0.5851678848266602
1772884854323535600,8.19953564453125,8.23168659210205,-0.9491772651672363,0.5979512929916382
1772884854340153300,8.2161533203125,5.856935501098633,-0.8841967582702637,1.3690893650054932
1772884854356742700,8.23274267578125,2.651177406311035,-0.9516329765319824,1.717545747756958
1772884854373366500,8.249366455078125,-0.4216346740722656,-1.1830482482910156,1.305059552192688
1772884854389973800,8.265973876953124,-2.7423248291015625,-1.265261173248291,0.48051196336746216
1772884854406580500,8.28258056640625,-4.34334659576416,-1.1615912914276123,-0.44065597653388977
1772884854423188000,8.29918798828125,-4.771378993988037,-1.132347583770752,-1.1453378200531006
1772884854439795200,8.315795166015626,-4.554826736450195,-1.2378592491149902,-1.4393426179885864
1772884854456401400,8.3324013671875,-3.7955312728881836,-1.3066534996032715,-1.0725092887878418
1772884854473008400,8.34900830078125,-3.0465879440307617,-1.4366869926452637,-0.15589258074760437
1772884854489615600,8.36561572265625,-2.5436768531799316,-1.439229965209961,0.6667839288711548
1772884854506222800,8.382222900390625,-2.536421775817871,-1.399707555770874,1.2170138359069824
1772884854522819300,8.3988193359375,-2.7491097450256348,-1.2983722686767578,1.391937494277954
1772884854539436800,8.415436767578125,-2.1097049713134766,-0.9994421005249023,1.1690505743026733
1772884854556043300,8.432043212890624,-0.08852195739746094,-0.8357658386230469,0.6784279346466064
1772884854572634000,8.448634033203126,1.9834814071655273,-0.7362813949584961,0.0788872241973877
1772884854589257500,8.465257568359375,3.0361881256103516,-0.34421253204345703,-0.488287091255188
1772884854605860600,8.481860595703125,3.1866321563720703,0.916710376739502,-0.7769254446029663
1772884854622475300,8.498475341796874,2.9856796264648438,2.083293914794922,-0.7617759704589844
1772884854639079200,8.5150791015625,3.0099964141845703,2.879401206970215,-0.4980229139328003
1772884854655684400,8.531684326171876,3.004638195037842,3.1551408767700195,-0.987235426902771
1772884854672298800,8.548298828125,2.897376537322998,2.4599833488464355,-1.551743745803833
1772884854688899300,8.5648994140625,2.3649044036865234,2.2779226303100586,-0.9556894302368164
1772884854705489400,8.581489501953126,2.2392168045043945,3.0516157150268555,0.518782377243042
1772884854722099700,8.598099609375,2.9999799728393555,2.804661750793457,1.2541513442993164
1772884854738693000,8.614693115234376,3.663580894470215,1.6033320426940918,0.843436598777771
1772884854755313400,8.6313134765625,3.7960662841796875,0.14666414260864258,-0.8423027992248535
1772884854771920600,8.647920654296875,3.1359548568725586,-1.3874447345733643,-2.4085025787353516
1772884854788527000,8.664527099609375,1.8812408447265625,-2.048768997192383,-2.4701220989227295
1772884854805134300,8.68113427734375,-0.08526039123535156,-2.0118014812469482,-1.1523674726486206
1772884854821758200,8.69775830078125,-1.5968332290649414,-1.2815134525299072,1.42868971824646
1772884854838362400,8.7143623046875,-2.578503131866455,-0.7451629638671875,2.7640178203582764
1772884854854968800,8.73096875,-3.666563034057617,-0.6961700916290283,2.5907821655273438
1772884854871575600,8.747575439453126,-4.45181941986084,-0.8211033344268799,1.4708436727523804
1772884854888183300,8.764183349609375,-4.364943027496338,-0.9298534393310547,0.23835164308547974
1772884854904789800,8.780789794921875,-3.464365005493164,-1.768845796585083,-0.46377044916152954
1772884854921396700,8.797396728515626,-3.6524667739868164,-2.4200546741485596,-0.9640635848045349
1772884854938004000,8.81400390625,-4.495965480804443,-2.0884382724761963,-0.2979479432106018
1772884854954610400,8.8306103515625,-5.224061489105225,-1.82240629196167,0.8599987030029297
1772884854971217400,8.847217529296875,-5.449671268463135,-1.6622538566589355,1.3503878116607666
1772884854987824400,8.863824462890625,-4.890252113342285,-1.2431325912475586,1.2613260746002197
1772884855004432400,8.880432373046874,-2.8223390579223633,-0.9032702445983887,0.9296931624412537
1772884855021038300,8.897038330078125,0.08790969848632812,-0.8670549392700195,0.319660484790802
1772884855037645300,8.913645263671874,3.073690414428711,-0.6699767112731934,-0.01707935333251953
1772884855054252500,8.93025244140625,4.392605781555176,-0.4504890441894531,-0.3716326355934143
1772884855070842600,8.946842529296875,3.9213743209838867,0.158203125,-0.7659164667129517
1772884855087466200,8.96346630859375,2.1327695846557617,0.16991376876831055,-0.28618282079696655
1772884855104074000,8.980073974609375,1.2394399642944336,0.6541962623596191,0.6430554389953613
1772884855120680200,8.99668017578125,1.8612957000732422,0.6319661140441895,0.777303159236908
1772884855137293600,9.01329345703125,2.686469078063965,0.5949125289916992,0.02020898461341858
1772884855153888000,9.029887939453126,3.830613136291504,1.3818106651306152,-0.29802021384239197
1772884855170488000,9.046488037109375,4.653277397155762,1.4113001823425293,-0.6583565473556519
1772884855187108000,9.063108154296875,5.426111221313477,1.4913816452026367,-1.182686686515808
1772884855203698200,9.0796982421875,5.989049911499023,2.0445642471313477,-1.090508222579956
1772884855220308200,9.09630810546875,5.712008476257324,1.7456002235412598,-0.28048092126846313
1772884855236915500,9.11291552734375,4.390316009521484,0.9700641632080078,0.3143896758556366
1772884855253522400,9.1295224609375,2.356917381286621,0.12584161758422852,0.6760601997375488
1772884855270129400,9.14612939453125,0.14757061004638672,-0.549403190612793,1.088393211364746
1772884855286736100,9.162736083984376,-1.691152572631836,-1.1396746635437012,1.2030683755874634
1772884855303343400,9.17934326171875,-2.1517114639282227,-1.4078683853149414,1.3037056922912598
1772884855319967700,9.1959677734375,-1.340651512145996,-1.753957748413086,1.353583574295044
1772884855336569300,9.2125693359375,-1.3454914093017578,-1.7995119094848633,0.6508383750915527
1772884855353178400,9.229178466796874,-2.360844612121582,-1.5811829566955566,0.6050758361816406
1772884855369784600,9.24578466796875,-3.854682445526123,-1.2453947067260742,0.7942996025085449
1772884855386392000,9.26239208984375,-4.466914653778076,-1.2483534812927246,1.0977513790130615
1772884855402997800,9.278997802734375,-3.5025205612182617,-0.984987735748291,0.47236931324005127
