time,seconds_elapsed,z,y,x
1772884846248361000,0.12436083984375,-0.0065668015740811825,-0.02428189292550087,0.21823160350322723
1772884846264978700,0.140978759765625,0.021532999351620674,-0.09086620807647705,0.24190263450145721
1772884846281592300,0.15759228515625,0.029932396486401558,-0.05665775015950203,0.18829920887947083
1772884846298199600,0.174199462890625,0.022602014243602753,-0.030695978552103043,0.13820825517177582
1772884846314811000,0.190810791015625,-0.0025961773935705423,-0.02580905705690384,0.13988813757896423
1772884846331418400,0.20741845703125,-0.030543262138962746,-0.019394971430301666,0.14905111491680145
1772884846348025600,0.224025634765625,-0.055283304303884506,0.00427605677396059,0.14492778480052948
1772884846364641800,0.240641845703125,-0.0630718395113945,0.060933809727430344,0.11820242553949356
1772884846381250600,0.25725048828125,-0.06429356336593628,0.1313360333442688,0.0809396430850029
1772884846397858000,0.273858154296875,-0.04841107130050659,0.154396191239357,0.09498954564332962
1772884846414448400,0.290448486328125,-0.020922135561704636,0.10919216275215149,0.15515977144241333
1772884846431071200,0.3070712890625,0.02076941914856434,0.04856378585100174,0.22082778811454773
1772884846447677700,0.323677734375,0.05314527451992035,0.023518312722444534,0.22479841113090515
1772884846464286200,0.3402861328125,0.0682641938328743,0.021991148591041565,0.18020524084568024
1772884846480890600,0.356890625,0.07941248267889023,0.060933809727430344,0.10781771689653397
1772884846497509400,0.37350927734375,0.08017606288194656,0.08994990587234497,0.031154127791523933
1772884846514106600,0.390106689453125,0.05375614017248154,0.09453139454126358,-0.0024434609804302454
1772884846530680300,0.406680419921875,-0.01725694350898266,0.1186605766415596,0.05665775015950203
1772884846555621400,0.431621337890625,-0.03130684420466423,0.007635815534740686,0.14294247329235077
1772884846572228000,0.44822802734375,-0.013133603148162365,0.0010690141934901476,0.16920967400074005
1772884846588849700,0.464849609375,-0.010995574295520782,0.035582900047302246,0.16783522069454193
1772884846605439700,0.481439697265625,-0.025656340643763542,0.0529925599694252,0.13958270847797394
1772884846622046000,0.4980458984375,-0.044135015457868576,0.039095375686883926,0.08445212244987488
1772884846638661600,0.51466162109375,-0.05406157299876213,0.02580905705690384,0.021074850112199783
1772884846655265300,0.531265380859375,-0.06017022579908371,0.018020525574684143,-0.012828170321881771
1772884846671868700,0.54786865234375,-0.058795779943466187,0.012675453908741474,-0.015118914656341076
1772884846688459300,0.564459228515625,-0.04841107130050659,0.021074850112199783,0.017867809161543846
1772884846705085400,0.58108544921875,-0.027641652151942253,0.09178250283002853,0.03588833287358284
1772884846721687600,0.5976875,0.03420845419168472,0.24068090319633484,0.01725694350898266
1772884846738298600,0.614298583984375,0.12293662875890732,0.39935314655303955,-0.024434609338641167
1772884846754896400,0.630896484375,0.14569136500358582,0.40286561846733093,-0.09529497474431992
1772884846771499500,0.64749951171875,0.16630806028842926,0.2687807083129883,-0.1927279829978943
1772884846788097500,0.66409765625,0.1745547503232956,0.14446963369846344,-0.2964223623275757
1772884846804715300,0.68071533203125,0.24419337511062622,-0.012522737495601177,-0.40683624148368835
1772884846821324500,0.697324462890625,0.39736783504486084,-0.08811730891466141,-0.5186246037483215
1772884846837928700,0.7139287109375,0.5432119369506836,-0.1592831164598465,-0.6149885654449463
1772884846854551300,0.73055126953125,0.5917757153511047,-0.23105977475643158,-0.5910121202468872
1772884846871155500,0.747155517578125,0.5371032953262329,-0.11636982858181,-0.43676865100860596
1772884846887752000,0.763751953125,0.4063780903816223,0.11743884533643723,-0.27641651034355164
1772884846904369200,0.780369140625,0.11530081182718277,0.2376265823841095,-0.22586742043495178
1772884846920972800,0.796972900390625,-0.29245173931121826,0.12140946835279465,-0.25045475363731384
1772884846937589000,0.813589111328125,-0.5997169613838196,-0.039706241339445114,-0.20952677726745605
1772884846954199000,0.830198974609375,-0.7609853744506836,0.12400564551353455,-0.10659598559141159
1772884846970785300,0.846785400390625,-0.8707883954048157,0.5499314665794373,-0.10476338863372803
1772884846987392500,0.863392578125,-0.9447031021118164,0.9265298843383789,-0.35216382145881653
1772884847003998000,0.879998046875,-0.8923214077949524,0.8628471493721008,-0.6021603941917419
1772884847020591000,0.896591064453125,-0.5487096905708313,0.869719386100769,-0.33078351616859436
1772884847037213400,0.91321337890625,-0.2874121069908142,1.0118982791900635,0.24037547409534454
1772884847053815600,0.929815673828125,-0.21578814089298248,0.9143125414848328,0.6734789609909058
1772884847070444800,0.94644482421875,-0.1612684279680252,0.251218318939209,0.7322747111320496
1772884847087046400,0.96304638671875,0.02076941914856434,-0.7309002876281738,0.6495024561882019
1772884847103652400,0.97965234375,0.17302757501602173,-1.6048957109451294,0.48380526900291443
1772884847120260600,0.996260498046875,0.15653422474861145,-2.15543794631958,0.12797626852989197
1772884847136870400,1.012870361328125,0.08949175477027893,-2.1923954486846924,-0.5232060551643372
1772884847153493800,1.02949365234375,-0.04138612002134323,-2.080148935317993,-1.5505287647247314
1772884847170079500,1.04607958984375,-0.16462817788124084,-2.200183868408203,-2.5552492141723633
1772884847186688500,1.0626884765625,-0.16630806028842926,-2.607936382293701,-3.294396162033081
1772884847203291000,1.079290771484375,-0.02825251780450344,-2.718350410461426,-3.78232479095459
1772884847219873500,1.09587353515625,-0.0529925599694252,-2.3605360984802246,-3.7734673023223877
1772884847236494000,1.112494140625,-0.23869559168815613,-1.659873604774475,-3.1311426162719727
1772884847253105400,1.12910546875,-0.47418415546417236,-0.6763805150985718,-1.9946277141571045
1772884847269710600,1.145710693359375,-0.7267768979072571,0.36422839760780334,-0.7148650288581848
1772884847286318800,1.16231884765625,-0.7302893996238708,0.5820018649101257,0.01114829070866108
1772884847302923500,1.178923583984375,-0.5838344693183899,0.3171917796134949,0.18066339194774628
1772884847319520800,1.195520751953125,-0.3631593883037567,0.054367005825042725,0.24877487123012543
1772884847336147700,1.212147705078125,-0.1495092660188675,-0.17104226350784302,0.30512720346450806
1772884847352754200,1.228754150390625,-0.1014036312699318,-0.34773504734039307,0.3404046595096588
1772884847369369900,1.245369873046875,-0.14538592100143433,-0.37308594584465027,0.3400992155075073
1772884847385966000,1.261966064453125,-0.21868975460529327,-0.41630467772483826,0.32009339332580566
1772884847402584600,1.27858447265625,-0.33887749910354614,-0.4259257912635803,0.30925053358078003
1772884847419211500,1.29521142578125,-0.4331034719944,-0.1895209401845932,0.3530801236629486
1772884847435793200,1.311793212890625,-0.555429220199585,0.16920967400074005,0.5195409059524536
1772884847452395000,1.32839501953125,-0.7124215960502625,0.5433646440505981,0.6872233748435974
1772884847469017000,1.34501708984375,-0.7276932001113892,0.932485818862915,0.6012440919876099
1772884847485609700,1.361609619140625,-0.6377432942390442,1.104138970375061,0.313373863697052
1772884847502225000,1.378224853515625,-0.6252205967903137,0.9737191796302795,0.15531249344348907
1772884847518829800,1.394829833984375,-0.6934847831726074,0.9367618560791016,0.15302173793315887
1772884847535440000,1.41143994140625,-0.7623597979545593,1.126282811164856,0.20097467303276062
1772884847552038000,1.428037841796875,-0.6834055185317993,1.122159481048584,0.7012733221054077
1772884847568654600,1.444654541015625,-0.5103778839111328,1.4811954498291016,1.9147571325302124
1772884847585257200,1.46125732421875,0.09498954564332962,2.2088887691497803,3.198948621749878
1772884847601862000,1.47786181640625,0.817948579788208,1.8723019361495972,3.36403489112854
1772884847618492700,1.49449267578125,0.9691377282142639,0.4804455041885376,3.0613510608673096
1772884847635078000,1.511077880859375,0.5036584138870239,-1.576948642730713,2.456136465072632
1772884847651683600,1.52768359375,-0.19120082259178162,-2.8188376426696777,1.2188289165496826
1772884847668291600,1.54429150390625,-0.46547931432724,-1.976454496383667,-0.23426681756973267
1772884847684899300,1.5608994140625,-0.5207626223564148,0.6056728959083557,-0.7188356518745422
1772884847701506000,1.577506103515625,-0.22678372263908386,2.1736111640930176,0.47082439064979553
1772884847718095400,1.594095458984375,0.24526239931583405,1.3600914478302002,0.9256135821342468
1772884847734707700,1.610707763671875,0.7929030656814575,-0.6910412907600403,-0.2577851414680481
1772884847751313700,1.627313720703125,1.0790934562683105,-2.1487185955047607,-1.4269812107086182
1772884847767922000,1.643921875,1.1635456085205078,-2.475989580154419,-1.8666514158248901
1772884847784528600,1.660528564453125,1.2596040964126587,-1.7869335412979126,-2.2208006381988525
1772884847801135900,1.677135986328125,1.2308934926986694,-0.8827002644538879,-2.573880672454834
1772884847817725000,1.693724853515625,0.8064948320388794,-0.31932979822158813,-2.959642171859741
1772884847834364700,1.71036474609375,0.06261368840932846,-0.4317290186882019,-3.4384076595306396
1772884847850974500,1.726974365234375,-0.6637051105499268,-0.8023715019226074,-2.774855375289917
1772884847867572000,1.743572021484375,-0.5091561675071716,-1.0516045093536377,-1.0983357429504395
1772884847884186000,1.76018603515625,-0.2125810980796814,-1.0659598112106323,0.5994115471839905
1772884847900790500,1.77679052734375,-0.028405234217643738,-1.3226759433746338,1.2345587015151978
1772884847917385000,1.793385009765625,-0.12370020896196365,-1.0157161951065063,0.8929322957992554
1772884847934002400,1.81000244140625,-0.5290092825889587,-0.3911064863204956,0.3234531581401825
1772884847950609200,1.826609130859375,-0.9179777503013611,0.012828170321881771,-0.22708915174007416
1772884847967270400,1.8432705078125,-1.179580807685852,0.39538252353668213,-0.5539020895957947
1772884847983824600,1.85982470703125,-1.1464413404464722,0.3553708493709564,-0.5949827432632446
1772884848000436200,1.876436279296875,-0.864068865776062,-0.15347988903522491,-0.16814066469669342
1772884848017017300,1.893017333984375,-0.603687584400177,-0.7724391222000122,0.5874996781349182
1772884848033644500,1.90964453125,-0.513126790523529,-1.028544306755066,1.1302534341812134
1772884848050250000,1.92625,-0.48609602451324463,-0.8084801435470581,1.155604362487793
1772884848066863000,1.942863037109375,-0.5140430927276611,-0.26083946228027344,0.8495608568191528
1772884848083490000,1.959489990234375,-0.5096143484115601,0.23029619455337524,0.6140722632408142
1772884848100060200,1.97606005859375,-0.4476115107536316,0.37690386176109314,0.6137668490409851
1772884848116668200,1.992668212890625,-0.3459024429321289,0.11698069423437119,0.7486153841018677
1772884848133287400,2.009287353515625,-0.31413745880126953,-0.13484850525856018,0.9308059215545654
1772884848149897000,2.02589697265625,-0.4560109078884125,-0.012828170321881771,1.0005972385406494
1772884848166501000,2.042501220703125,-0.4544837474822998,0.31459560990333557,0.8958339095115662
1772884848183114000,2.059114013671875,-0.4538728892803192,0.746019184589386,0.7739662528038025
1772884848199714800,2.07571484375,-0.5288565754890442,1.0227410793304443,0.7666358947753906
1772884848216307500,2.092307373046875,-0.6343835592269897,1.0881037712097168,0.8341364860534668
1772884848232916200,2.108916259765625,-0.6099489331245422,1.1290316581726074,0.825584352016449
1772884848249516000,2.12551611328125,-0.5351179838180542,1.1942415237426758,0.6262896060943604
1772884848261983200,2.137983154296875,-0.6148358583450317,1.0939068794250488,0.3465133011341095
1772884848278572800,2.15457275390625,-0.7423539757728577,1.045190453529358,0.17318029701709747
1772884848295194000,2.171194091796875,-1.0288498401641846,1.1826350688934326,0.2194533348083496
1772884848311796200,2.187796142578125,-1.118036150932312,1.9175059795379639,0.6039929986000061
1772884848328417500,2.20441748046875,-0.6919575929641724,2.800511598587036,1.3845261335372925
1772884848345015300,2.221015380859375,-0.16508632898330688,3.0644054412841797,2.419942617416382
1772884848361623600,2.23762353515625,0.15943582355976105,2.6839892864227295,2.6959011554718018
1772884848378242800,2.254242919921875,0.4291328489780426,1.7644842863082886,1.4340062141418457
1772884848394849300,2.270849365234375,0.3222314119338989,-0.02321287989616394,0.06979135423898697
1772884848411435800,2.287435791015625,-0.1134682223200798,-1.6803375482559204,-1.0891727209091187
1772884848428066800,2.30406689453125,-0.25595253705978394,-1.8289304971694946,-2.1488711833953857
1772884848444669400,2.32066943359375,-0.05253441259264946,-0.8848382830619812,-2.4237606525421143
1772884848461280000,2.337280029296875,0.0682641938328743,-0.7200574278831482,-2.8602237701416016
1772884848477882600,2.353882568359375,-0.2396118938922882,-1.2237157821655273,-3.266449213027954
1772884848494487000,2.370487060546875,-0.3355177342891693,-1.8501580953598022,-2.7759244441986084
1772884848511082800,2.387082763671875,0.12782354652881622,-2.4996604919433594,-1.4243850708007812
1772884848527709400,2.40370947265625,0.7137960195541382,-2.8745791912078857,-0.29275718331336975
1772884848544306700,2.420306640625,1.0445796251296997,-2.6166412830352783,0.1921171247959137
1772884848560915500,2.43691552734375,1.069166898727417,-1.732261061668396,0.11530081182718277
1772884848577534500,2.453534423828125,0.8680394887924194,-0.854905903339386,-0.20326541364192963
1772884848594129200,2.470129150390625,0.578489363193512,-0.4531092941761017,-0.3448334336280823
1772884848610744300,2.486744384765625,0.36713001132011414,-0.6247624158859253,-0.19715675711631775
1772884848627349500,2.503349609375,0.2799290120601654,-0.7701483368873596,0.03390302136540413
1772884848643952400,2.519952392578125,0.2330450862646103,-0.6597344875335693,0.27718010544776917
1772884848660560100,2.53656005859375,0.18035796284675598,-0.3839288055896759,0.5054910182952881
1772884848677171700,2.553171630859375,0.13637566566467285,-0.08949175477027893,0.6779077053070068
1772884848693771800,2.569771728515625,0.041233405470848083,0.13179416954517365,0.7363980412483215
1772884848710382300,2.58638232421875,-0.05711590126156807,0.2996293902397156,0.7903069257736206
1772884848726973200,2.60297314453125,-0.2073887437582016,0.35781431198120117,0.7835873961448669
1772884848743583200,2.619583251953125,-0.5279402732849121,0.327271044254303,0.542142927646637
1772884848760190000,2.63618994140625,-1.016479730606079,0.09514226019382477,0.5551238059997559
1772884848776796400,2.65279638671875,-1.5015068054199219,0.07483099400997162,0.6122397184371948
1772884848793407000,2.669406982421875,-1.8319848775863647,0.7472409009933472,0.664315938949585
1772884848810011100,2.68601123046875,-1.9630154371261597,1.5624406337738037,0.7212791442871094
1772884848826633000,2.702633056640625,-1.8945986032485962,1.6126842498779297,0.703411340713501
1772884848843230500,2.71923046875,-1.6502524614334106,1.5977180004119873,0.5955936312675476
1772884848859851800,2.735851806640625,-1.105207920074463,1.8235855102539062,0.06551529467105865
1772884848876439800,2.752439697265625,-0.14294247329235077,3.263700246810913,0.16142113506793976
1772884848893074700,2.76907470703125,0.9039278626441956,4.0071234703063965,0.4101960062980652
1772884848909649200,2.785649169921875,1.1557570695877075,2.922532081604004,0.9057604670524597
1772884848926274300,2.8022744140625,0.6013968586921692,1.528384804725647,1.5117387771606445
1772884848942876400,2.81887646484375,0.4138612151145935,0.46364670991897583,1.57313072681427
1772884848959491800,2.835491943359375,0.803440511226654,-0.7225008606910706,1.182482361793518
1772884848976093700,2.85209375,0.9213374853134155,-2.096642255783081,0.3127630054950714
1772884848992685600,2.868685546875,1.002277135848999,-2.8519771099090576,-0.6116288304328918
1772884849009305900,2.885305908203125,1.2638801336288452,-2.9179506301879883,-1.533729910850525
1772884849025917400,2.90191748046875,1.3535246849060059,-2.219120740890503,-2.417041063308716
1772884849042520300,2.918520263671875,1.203251838684082,-1.289689302444458,-2.8011226654052734
1772884849059125800,2.935125732421875,1.1032226085662842,-0.5047274231910706,-2.411695957183838
1772884849075739600,2.95173974609375,0.8823948502540588,0.22067506611347198,-1.2626584768295288
1772884849092342800,2.9683427734375,0.6513350605964661,1.0396926403045654,0.2093740701675415
1772884849108946400,2.984946533203125,0.7544185519218445,0.5077817440032959,0.8119926452636719
1772884849125560000,3.00156005859375,0.9121745228767395,-0.22739458084106445,0.9466884136199951
1772884849142163500,3.01816357421875,0.9074403047561646,-0.5209153294563293,0.9393580555915833
1772884849158763800,3.034763671875,0.7617489695549011,-0.4011857509613037,0.8683449625968933
1772884849175385600,3.051385498046875,0.5222898125648499,0.1498146951198578,0.7603744864463806
1772884849191984600,3.067984619140625,0.3703370690345764,0.8651378750801086,0.7405213713645935
1772884849208590000,3.084590087890625,0.22617286443710327,1.193477988243103,0.6896668672561646
1772884849225185300,3.101185302734375,0.07941248267889023,1.2081387042999268,0.5650503635406494
1772884849241791700,3.117791748046875,-0.07437284290790558,1.0282388925552368,0.3790418803691864
1772884849258403600,3.134403564453125,-0.2643519341945648,0.737772524356842,0.04948008432984352
1772884849274988500,3.150988525390625,-0.5076290369033813,0.7771732807159424,-0.152105450630188
1772884849291609600,3.167609619140625,-0.5038111209869385,1.4161384105682373,0.18020524084568024
1772884849308219100,3.18421923828125,-0.19532416760921478,2.349998712539673,0.9747881889343262
1772884849324831500,3.20083154296875,0.24434609711170197,2.8515188694000244,1.6362025737762451
1772884849341422600,3.217422607421875,0.508698046207428,1.971109390258789,1.3669637441635132
1772884849358042600,3.234042724609375,0.3410155177116394,0.35124751925468445,0.15042556822299957
1772884849374652700,3.250652587890625,0.20143280923366547,-0.7089090943336487,-1.0684033632278442
1772884849391249400,3.26724951171875,0.22189679741859436,-1.313360333442688,-1.7638733386993408
1772884849407878400,3.28387841796875,0.2838996350765228,-1.7359262704849243,-2.2513439655303955
1772884849424487700,3.30048779296875,0.44165557622909546,-1.7594445943832397,-2.225229263305664
1772884849441090800,3.3170908203125,0.6673702597618103,-1.4046846628189087,-1.8929187059402466
1772884849457698300,3.3336982421875,0.8452847599983215,-0.942259669303894,-1.8684840202331543
1772884849474305500,3.350305419921875,0.770606517791748,-0.4948008358478546,-2.0857994556427
1772884849490894600,3.36689453125,0.6027712821960449,-0.14553864300251007,-1.958128571510315
1772884849507519500,3.38351953125,0.5671883821487427,0.13148874044418335,-1.1624765396118164
1772884849524130600,3.400130615234375,0.4628831446170807,0.20295998454093933,-0.04841107130050659
1772884849540733000,3.41673291015625,0.4334088861942291,0.3013092875480652,0.8341364860534668
1772884849557340400,3.43334033203125,0.4005748927593231,0.4453207552433014,1.070388674736023
1772884849573948000,3.449947998046875,0.3836233615875244,0.6015495657920837,0.8669704794883728
1772884849590549500,3.466549560546875,0.37888917326927185,0.6864598393440247,0.7623597979545593
1772884849607161300,3.483161376953125,0.31261029839515686,0.7881689071655273,0.8915578126907349
1772884849623773200,3.499773193359375,0.08002334833145142,0.5835290551185608,0.955545961856842
1772884849640375300,3.516375244140625,-0.08964447677135468,0.446389764547348,1.207680583000183
1772884849656982300,3.532982177734375,-0.2541199326515198,0.1742493063211441,1.2072224617004395
1772884849673588700,3.549588623046875,-0.2562579810619354,0.026114489883184433,1.023352026939392
1772884849690219300,3.56621923828125,-0.2782491147518158,0.1540907621383667,0.9234755635261536
1772884849706801400,3.582801513671875,-0.1459967941045761,0.7826710939407349,1.320385217666626
1772884849723415800,3.599415771484375,-0.00733038317412138,1.8409950733184814,2.3160955905914307
1772884849740017400,3.616017333984375,0.4001167416572571,2.252565622329712,2.6920831203460693
1772884849756621000,3.63262109375,0.7654141783714294,1.3376421928405762,1.990351676940918
1772884849781666300,3.657666259765625,1.0279334783554077,-0.6027712821960449,0.40851613879203796
1772884849798127600,3.674127685546875,1.2849550247192383,-1.287245750427246,-0.27580565214157104
1772884849814734000,3.690734130859375,1.107956886291504,-1.3138184547424316,-0.9428704977035522
1772884849831341800,3.707341796875,0.7159340381622314,-1.214552879333496,-1.7913622856140137
1772884849847935000,3.72393505859375,0.4948008358478546,-1.1827877759933472,-2.1946861743927
1772884849864555800,3.7405556640625,0.5371032953262329,-1.2261592149734497,-1.983632206916809
1772884849881181200,3.75718115234375,0.6846272349357605,-1.2536481618881226,-1.6198619604110718
1772884849897781500,3.773781494140625,0.6921103000640869,-0.9676105380058289,-1.3533719778060913
1772884849914385700,3.7903857421875,0.6288857460021973,-0.5448917746543884,-1.324508547782898
1772884849930975500,3.8069755859375,0.5077817440032959,-0.21288654208183289,-1.24647057056427
1772884849947584300,3.823584228515625,0.2538145184516907,0.014202617108821869,-0.8943067193031311
1772884849964211500,3.84021142578125,-0.03680463135242462,-0.022907447069883347,-0.2906191349029541
1772884849980824600,3.856824462890625,-0.3113885521888733,-0.0705549344420433,0.5514585971832275
1772884849997419500,3.87341943359375,-0.47280970215797424,0.11438451707363129,1.2182179689407349
1772884850014032100,3.8900322265625,-0.42730024456977844,0.6111706495285034,1.4065172672271729
1772884850030639600,3.9066396484375,-0.29504790902137756,1.2487612962722778,1.2773191928863525
1772884850047229400,3.9232294921875,-0.2116648107767105,1.6716327667236328,1.1797335147857666
1772884850063853600,3.939853515625,-0.22250767052173615,1.9646953344345093,1.2794572114944458
1772884850080456000,3.9564560546875,-0.4167627990245819,1.7084373235702515,1.2710578441619873
1772884850097071600,3.973071533203125,-0.7932085394859314,0.8211556077003479,1.1435397863388062
1772884850113657600,3.98965771484375,-1.0758863687515259,-0.09560041129589081,1.043968677520752
1772884850130281000,4.006281005859375,-1.0112874507904053,-0.19013181328773499,1.2374602556228638
1772884850146902300,4.02290234375,-0.7382306456565857,0.9529497623443604,1.8307631015777588
1772884850163464000,4.0394638671875,-0.1336267739534378,2.2099578380584717,2.473698854446411
1772884850180098800,4.056098876953125,0.4144720733165741,2.1846067905426025,2.298074960708618
1772884850196713500,4.07271337890625,0.7081455588340759,0.8677340745925903,1.3501648902893066
1772884850213299000,4.089298828125,0.9263771176338196,-1.2322678565979004,-0.4766276180744171
1772884850229923600,4.105923583984375,1.1601858139038086,-2.1265745162963867,-1.429577350616455
1772884850246511400,4.122511474609375,1.1917980909347534,-2.0787744522094727,-1.8976528644561768
1772884850263137800,4.1391376953125,1.0868819952011108,-1.552055835723877,-2.194075345993042
1772884850279726800,4.155726806640625,0.9789115786552429,-0.8868235945701599,-1.987450122833252
1772884850296338200,4.172338134765625,0.9541715383529663,-0.49205195903778076,-1.658041000366211
1772884850312944400,4.1889443359375,0.9999864101409912,-0.1540907621383667,-1.7486017942428589
1772884850329551600,4.205551513671875,0.9906707406044006,0.16371189057826996,-2.014939069747925
1772884850346152400,4.22215234375,0.7999280095100403,0.4095851480960846,-2.0552561283111572
1772884850362766300,4.238766357421875,0.455705463886261,0.6214026808738708,-1.638493299484253
1772884850379372300,4.255372314453125,0.07528914511203766,0.6285803318023682,-1.0723739862442017
1772884850395996700,4.27199658203125,-0.25473082065582275,0.41722095012664795,-0.6168211698532104
1772884850412584200,4.288584228515625,-0.4833471179008484,0.17058411240577698,-0.15347988903522491
1772884850429191400,4.30519140625,-0.535881519317627,0.06169738993048668,0.2422080636024475
1772884850445799400,4.32179931640625,-0.5111414790153503,0.10506882518529892,0.4576907753944397
1772884850462421800,4.338421875,-0.47830748558044434,0.46532660722732544,0.565203070640564
1772884850479023600,4.355023681640625,-0.40912699699401855,0.977689802646637,0.6464481353759766
1772884850495640300,4.371640380859375,-0.30314189195632935,1.2334896326065063,0.6185010671615601
1772884850512225500,4.3882255859375,-0.1849394589662552,0.8917105197906494,0.7573201656341553
1772884850528855300,4.404855224609375,-0.10674870014190674,0.42042800784111023,0.5545129179954529
1772884850545433000,4.42143310546875,-0.2945897579193115,-0.42241331934928894,0.09315694868564606
1772884850562064100,4.438064208984375,-0.5125159621238708,-1.0086911916732788,0.02367102913558483
1772884850578665700,4.454665771484375,-0.4882340431213379,-0.42149701714515686,1.0016663074493408
1772884850595281700,4.47128173828125,-0.24846944212913513,1.1296426057815552,2.7229318618774414
1772884850611848700,4.4878486328125,-0.016340645030140877,2.0789270401000977,3.354871988296509
1772884850628491800,4.50449169921875,0.054367005825042725,1.1940888166427612,2.119396924972534
1772884850645083100,4.521083251953125,-0.19379699230194092,-0.5890268087387085,-0.3446807265281677
1772884850661706000,4.5377060546875,-0.4309654235839844,-1.794722080230713,-3.0827314853668213
1772884850678308000,4.55430810546875,-0.44547349214553833,-1.9517145156860352,-4.268878936767578
1772884850694923300,4.57092333984375,-0.313373863697052,-1.6247488260269165,-3.3214271068573
1772884850711544600,4.587544677734375,0.15363261103630066,-1.0377073287963867,-1.553277611732483
1772884850728133400,4.60413330078125,0.3923282027244568,-0.6870706677436829,-1.2163853645324707
1772884850744739600,4.620739501953125,0.28267788887023926,-0.2565633952617645,-2.0315849781036377
1772884850761345000,4.637344970703125,0.05604688450694084,-0.1270599663257599,-3.224146842956543
1772884850777940200,4.653940185546875,-0.03878994286060333,-0.28985556960105896,-2.7627906799316406
1772884850794535700,4.67053564453125,-0.0659734457731247,-0.342237263917923,-1.2904528379440308
1772884850811154200,4.687154296875,-0.03787364438176155,-0.24465152621269226,0.31902438402175903
1772884850827762000,4.703761962890625,-0.059864792972803116,-0.166460782289505,1.2867876291275024
1772884850844358700,4.720358642578125,-0.09269879758358002,-0.05711590126156807,1.397048830986023
1772884850860975900,4.736975830078125,-0.15592335164546967,-0.02733621932566166,1.0415252447128296
1772884850877582600,4.75358251953125,-0.12278391420841217,0.07620543986558914,0.8292495608329773
1772884850894207200,4.770207275390625,-0.17241671681404114,0.11178833991289139,0.8009970784187317
1772884850910810000,4.78681005859375,-0.23594669997692108,0.47510045766830444,0.9737191796302795
1772884850927417300,4.803417236328125,-0.3819434940814972,0.8672759532928467,1.0853548049926758
1772884850944007400,4.82000732421875,-0.6627888083457947,0.7681630253791809,1.250593900680542
1772884850960632300,4.83663232421875,-0.9202684760093689,0.19226983189582825,1.427744746208191
1772884850977238500,4.853238525390625,-1.023046612739563,-0.3778201639652252,1.4271339178085327
1772884850993845500,4.869845458984375,-0.9332493543624878,-0.1768454909324646,1.4738651514053345
1772884851010434000,4.88643408203125,-0.773202657699585,0.48976120352745056,1.8070920705795288
1772884851027059500,4.9030595703125,-0.6583600044250488,1.043968677520752,2.7088818550109863
1772884851043649800,4.91964990234375,-0.40912699699401855,1.125366449356079,3.852421760559082
1772884851060257300,4.93625732421875,-0.06719517707824707,0.7857254147529602,4.3369903564453125
1772884851076880100,4.952880126953125,-0.07376197725534439,-0.07880161702632904,3.4245104789733887
1772884851093487900,4.96948779296875,-0.33108896017074585,-1.163851022720337,1.221577763557434
1772884851110092000,4.986092041015625,-0.09712757170200348,-1.2072224617004395,-1.1508700847625732
1772884851126701300,5.002701416015625,0.34437528252601624,-0.6163630485534668,-2.345417022705078
1772884851143291400,5.01929150390625,0.589790403842926,-0.15454891324043274,-2.1560487747192383
1772884851159916300,5.035916259765625,0.825584352016449,-0.17730364203453064,-1.6717854738235474
1772884851176518000,5.052517822265625,0.8316930532455444,-0.5479460954666138,-1.4891366958618164
1772884851193134300,5.06913427734375,0.5618433356285095,-1.1352930068969727,-1.60627019405365
1772884851209719300,5.08571923828125,0.3078760802745819,-1.1197160482406616,-1.3634512424468994
1772884851226343700,5.10234375,0.2591595947742462,-0.46043968200683594,-0.5952881574630737
1772884851242933500,5.11893359375,0.4080579876899719,0.337503045797348,0.008857546374201775
1772884851259540700,5.135540771484375,0.5361869931221008,0.7240280508995056,0.3602577745914459
1772884851276150000,5.15214990234375,0.43799036741256714,0.6285803318023682,0.6659958362579346
1772884851292758800,5.1687587890625,0.20082195103168488,0.3219259977340698,0.8735373020172119
1772884851309364200,5.1853642578125,0.048105638474226,0.051770828664302826,1.0166324377059937
1772884851325971700,5.2019716796875,-0.04688390716910362,0.0708603709936142,1.0493137836456299
1772884851342567400,5.2185673828125,-0.13286319375038147,0.31261029839515686,0.9885326623916626
1772884851359175700,5.23517578125,-0.2064724564552307,0.5650503635406494,0.9669997096061707
1772884851375805400,5.251805419921875,-0.2893974184989929,0.7089090943336487,1.0039570331573486
1772884851392417800,5.268417724609375,-0.3706424832344055,0.5574145317077637,1.0607675313949585
1772884851409007600,5.285007568359375,-0.38438695669174194,0.1459967941045761,1.031598687171936
1772884851425622500,5.30162255859375,-0.34804046154022217,-0.09147707372903824,0.7976372838020325
1772884851442222300,5.318222412109375,-0.41202861070632935,-0.12660181522369385,0.4922046661376953
1772884851458842000,5.334842041015625,-0.5422956347465515,0.052381694316864014,0.28878653049468994
1772884851475448000,5.351447998046875,-0.6861543655395508,0.3747658133506775,0.6548475623130798
1772884851492056000,5.36805615234375,-0.6298020482063293,0.5355761051177979,1.5155566930770874
1772884851508646700,5.384646728515625,-0.3602577745914459,0.38438695669174194,2.391842842102051
1772884851525269200,5.401269287109375,0.029626963660120964,-0.28099802136421204,2.7644705772399902
1772884851541859000,5.417859130859375,0.12140946835279465,-0.5792529582977295,2.395355224609375
1772884851558484200,5.434484130859375,-0.1612684279680252,-0.22372940182685852,1.358258843421936
1772884851575081700,5.451081787109375,-0.4781547784805298,0.3023782968521118,-0.2102903574705124
1772884851591705600,5.46770556640625,-0.48548516631126404,0.41141775250434875,-2.130239725112915
1772884851608305000,5.484304931640625,-0.294437050819397,-0.01542434748262167,-3.935499429702759
1772884851624911600,5.50091162109375,0.04489859566092491,-0.5566509366035461,-4.525747776031494
1772884851641501200,5.517501220703125,-0.018478672951459885,-1.1195632219314575,-3.596316337585449
1772884851658125800,5.534125732421875,-0.10567969083786011,-1.5998560190200806,-2.1349740028381348
1772884851674728000,5.55072802734375,-0.3669773042201996,-0.499382346868515,-0.7063129544258118
1772884851691343600,5.567343505859375,-0.235030397772789,0.5378668308258057,-0.23777928948402405
1772884851707929900,5.583929931640625,0.04459316283464432,0.8845328688621521,-0.11026117950677872
1772884851724553500,5.600553466796875,0.22999076545238495,0.5904012322425842,0.12446379661560059
1772884851741157600,5.61715771484375,0.31841349601745605,0.057879481464624405,0.2909245789051056
1772884851757750500,5.63375048828125,0.3032945990562439,-0.3150537610054016,0.2741257846355438
1772884851774360300,5.6503603515625,0.23915374279022217,-0.24327708780765533,0.11911872029304504
1772884851790967800,5.6669677734375,0.1394299864768982,0.17623461782932281,0.06933320313692093
1772884851807574000,5.683573974609375,-0.0835358202457428,0.41890084743499756,0.48716503381729126
1772884851824181800,5.700181640625,-0.3081815242767334,0.5132794976234436,1.068861484527588
1772884851840775200,5.716775146484375,-0.36880987882614136,0.40851613879203796,1.320385217666626
1772884851857396000,5.73339599609375,-0.34284812211990356,0.16814066469669342,1.1998920440673828
1772884851874010000,5.750010009765625,-0.26145032048225403,0.024129176512360573,0.8231409192085266
1772884851890632200,5.766632080078125,-0.19456058740615845,-0.03695734590291977,0.3446807265281677
1772884851907214600,5.783214599609375,-0.060933809727430344,-0.15164729952812195,-0.1281289905309677
1772884851923837400,5.79983740234375,0.004734205547720194,-0.11041389405727386,-0.2817615866661072
1772884851940414700,5.816414794921875,-0.004886921960860491,-0.039095375686883926,0.25992316007614136
1772884851957052200,5.83305224609375,0.1160643994808197,-0.17043140530586243,1.2139419317245483
1772884851973654000,5.849654052734375,0.2860376536846161,-0.5363397002220154,2.0115792751312256
1772884851990269000,5.86626904296875,0.12858712673187256,-0.8358163833618164,2.3127357959747314
1772884852006871600,5.88287158203125,-0.10735956579446793,-0.9850202202796936,1.7715091705322266
1772884852023470600,5.899470703125,-0.024892758578062057,-0.8759807348251343,0.7374670505523682
1772884852040081200,5.9160810546875,0.17837265133857727,-0.9260717034339905,-0.36010506749153137
1772884852056693500,5.932693603515625,0.3689626157283783,-0.7026477456092834,-1.8132007122039795
1772884852073300000,5.949300048828125,0.26710084080696106,-0.10659598559141159,-2.970637798309326
1772884852089890600,5.965890625,0.05910121276974678,0.31871894001960754,-3.5217907428741455
1772884852106497300,5.982497314453125,-0.14324790239334106,0.34666603803634644,-3.406337261199951
1772884852123121200,5.99912109375,-0.3254384696483612,0.008704829961061478,-2.549293279647827
1772884852139701000,6.015700927734375,-0.3985895812511444,-0.4639521539211273,-1.3348932266235352
1772884852156336000,6.032336181640625,-0.40393465757369995,-0.7108944058418274,-0.32299500703811646
1772884852172938800,6.048938720703125,-0.327729195356369,-0.3553708493709564,-0.04566217586398125
1772884852189551600,6.065551513671875,-0.20402899384498596,0.34162637591362,-0.28909197449684143
1772884852206135300,6.08213525390625,-0.03481931984424591,0.9946413636207581,-0.6142250299453735
1772884852222767400,6.098767333984375,0.13530665636062622,1.044274091720581,-0.6803511381149292
1772884852239353300,6.115353271484375,0.22357667982578278,0.6168211698532104,-0.39095374941825867
1772884852255960600,6.131960693359375,0.21105393767356873,0.1560760736465454,0.13377949595451355
1772884852272569600,6.148569580078125,0.1463022232055664,0.0705549344420433,0.6449210047721863
1772884852289178000,6.16517822265625,0.06185010448098183,0.19486601650714874,0.9634872078895569
1772884852305784000,6.1817841796875,0.01725694350898266,0.42989641427993774,1.054964303970337
1772884852322391300,6.198391357421875,-0.0012217304902151227,0.5965099334716797,1.0277807712554932
1772884852338984700,6.214984619140625,0.007024950347840786,0.4688390791416168,0.9702067375183105
1772884852355629000,6.231629150390625,0.09422596544027328,0.29565876722335815,0.927446186542511
1772884852372226000,6.24822607421875,0.21700987219810486,0.31352660059928894,1.0143417119979858
1772884852388833300,6.264833251953125,0.36193767189979553,0.4092797040939331,1.4176654815673828
1772884852405421600,6.281421630859375,0.5125159621238708,0.1944078654050827,1.9211711883544922
1772884852422047200,6.298047119140625,0.5099197626113892,-0.2249511331319809,2.19163179397583
1772884852438682400,6.314682373046875,0.15363261103630066,-0.3280346393585205,2.1088595390319824
1772884852455241000,6.331240966796875,-0.27061331272125244,0.14416420459747314,1.3771957159042358
1772884852471851300,6.347851318359375,-0.5523748993873596,0.5867360830307007,0.24037547409534454
1772884852488460000,6.3644599609375,-0.3813326358795166,0.5797111392021179,-1.3182471990585327
1772884852505054200,6.38105419921875,-0.009773843921720982,0.27840182185173035,-3.0392072200775146
1772884852521675300,6.39767529296875,0.1644754707813263,-0.12797626852989197,-3.7557523250579834
1772884852538285300,6.414285400390625,0.06780604273080826,-0.7498371005058289,-2.9491047859191895
1772884852554889500,6.430889404296875,-0.07742717117071152,-1.119410514831543,-1.417970895767212
1772884852571496000,6.447495849609375,-0.10308351367712021,-0.8104654550552368,-0.660192608833313
1772884852588103200,6.464103271484375,-0.07147123664617538,-0.010995574295520782,-0.8965974450111389
1772884852604713000,6.480712890625,-0.016493361443281174,0.6531676650047302,-1.2530373334884644
1772884852621331000,6.4973310546875,0.03741549700498581,0.8324565887451172,-1.0538952350616455
1772884852637908200,6.513908203125,0.05925392732024193,0.46303585171699524,-0.30115658044815063
1772884852654545000,6.530544921875,0.05849034711718559,-0.2539672255516052,0.5833762884140015
1772884852671150800,6.54715087890625,0.09254608303308487,-0.8819366693496704,1.135140299797058
1772884852687760000,6.563759765625,0.13072516024112701,-0.9337075352668762,1.3251193761825562
1772884852704332500,6.58033251953125,0.10308351367712021,-0.5568036437034607,1.3066407442092896
1772884852720972500,6.59697265625,0.03405573591589928,-0.11942415684461594,1.201724648475647
1772884852737547500,6.613547607421875,0.004886921960860491,0.27641651034355164,1.0812314748764038
1772884852754173700,6.630173583984375,-0.053297992795705795,0.2817615866661072,0.9159924387931824
1772884852770776800,6.64677685546875,-0.1765400618314743,0.07299839705228806,0.6763805150985718
1772884852787390500,6.663390380859375,-0.3029891550540924,0.056352317333221436,0.23579397797584534
1772884852803993300,6.679993408203125,-0.342695415019989,0.4082106947898865,-0.15775595605373383
1772884852820601300,6.696601318359375,-0.36621370911598206,1.0487029552459717,-0.05360342562198639
1772884852837206300,6.713206298828125,-0.3043636083602905,1.426675796508789,0.5664247870445251
1772884852853832400,6.72983251953125,-0.09544769674539566,1.0131200551986694,1.543809175491333
1772884852870415400,6.746415283203125,0.14233160018920898,-0.10231992602348328,2.172236919403076
1772884852887046400,6.76304638671875,0.1915062516927719,-0.9873109459877014,2.1429152488708496
1772884852903646500,6.779646484375,0.15332718193531036,-1.119410514831543,1.257924199104309
1772884852920256800,6.7962568359375,0.2583959996700287,-0.5633704662322998,-0.10476338863372803
1772884852936844800,6.8128447265625,0.4334088861942291,-0.38469240069389343,-1.4260649681091309
1772884852953457700,6.829457763671875,0.4697553813457489,-0.5726861953735352,-2.4489588737487793
1772884852970073300,6.8460732421875,0.194713294506073,-0.46670106053352356,-2.6448938846588135
1772884852986688500,6.8626884765625,-0.12461651116609573,-0.18936823308467865,-2.108401298522949
1772884853003277000,6.879277099609375,-0.32620203495025635,-0.10231992602348328,-1.3674218654632568
1772884853019898600,6.895898681640625,-0.33505958318710327,0.0507018156349659,-0.9676105380058289
1772884853036523500,6.9125234375,-0.1644754707813263,0.12660181522369385,-1.0109820365905762
1772884853053113000,6.929113037109375,0.1270599663257599,0.06536258012056351,-1.1788171529769897
1772884853069723400,6.945723388671875,0.3225368559360504,-0.03756821155548096,-1.116508960723877
1772884853086322700,6.96232275390625,0.32162055373191833,-0.0074830991216003895,-0.7915286421775818
1772884853102916600,6.97891650390625,0.15974126756191254,0.10445795953273773,-0.26511552929878235
1772884853119540700,6.995540771484375,-0.03039054572582245,0.3202461004257202,0.42180246114730835
1772884853136116500,7.012116455078125,-0.07696902006864548,0.5221370458602905,0.8903360962867737
1772884853152755200,7.028755126953125,-0.0861319974064827,0.5190827250480652,1.123686671257019
1772884853169358600,7.045358642578125,-0.10735956579446793,0.2483167201280594,1.1707231998443604
1772884853185971200,7.06197119140625,-0.11407908797264099,0.011453723534941673,1.112385630607605
1772884853202577700,7.07857763671875,-0.12797626852989197,-0.005192354787141085,0.9550877809524536
1772884853219182600,7.0951826171875,-0.13225232064723969,0.2070833146572113,0.7728972434997559
1772884853235758800,7.1117587890625,-0.15347988903522491,0.2816088795661926,0.7298312783241272
1772884853252382700,7.1283828125,-0.16325373947620392,0.11514809727668762,0.8268061280250549
1772884853268989200,7.1449892578125,-0.1488984078168869,0.030237829312682152,1.1433870792388916
1772884853285597200,7.16159716796875,-0.12324206531047821,0.10522153973579407,1.5972598791122437
1772884853302203000,7.178202880859375,-0.008704829961061478,0.021380282938480377,1.9370536804199219
1772884853318810600,7.194810546875,0.033139441162347794,-0.2539672255516052,2.007150411605835
1772884853335409000,7.211408935546875,-0.029474247246980667,-0.32528573274612427,1.7145460844039917
1772884853352039200,7.2280390625,-0.0981965884566307,-0.17043140530586243,1.2434161901474
1772884853368641000,7.24464111328125,-0.13316862285137177,-0.10965031385421753,0.8614727258682251
1772884853385256200,7.261256103515625,-0.10216721147298813,-0.3045163154602051,0.47678032517433167
1772884853401842400,7.277842529296875,-0.036193765699863434,-0.5807801485061646,-0.25763240456581116
1772884853418466300,7.29446630859375,0.0024434609804302454,-0.6253733038902283,-1.2466232776641846
1772884853435061800,7.311061767578125,-0.011301007121801376,-0.2838996350765228,-1.9300287961959839
1772884853451680500,7.327680419921875,-0.0708603709936142,0.07819075137376785,-1.9763017892837524
1772884853468282000,7.3442822265625,-0.12064588814973831,0.14752395451068878,-1.553583025932312
1772884853484881700,7.360881591796875,-0.12232576310634613,-0.14278975129127502,-1.0543533563613892
1772884853501500700,7.377500732421875,-0.10537425428628922,-0.5094616413116455,-0.727082371711731
1772884853518108200,7.394108154296875,-0.10399980843067169,-0.5926920175552368,-0.6837109327316284
1772884853534674700,7.4106748046875,-0.06276640295982361,-0.33857205510139465,-0.698066234588623
1772884853551338200,7.427338134765625,-0.024587325751781464,0.005955935921519995,-0.4804455041885376
1772884853567933200,7.44393310546875,-0.0010690141934901476,0.2767219543457031,-0.11835514008998871
1772884853584531700,7.46053173828125,-0.001527163083665073,0.385303258895874,0.266184538602829
1772884853601125600,7.477125732421875,-0.06276640295982361,0.31612277030944824,0.5913175344467163
1772884853617750000,7.49375,-0.17989981174468994,0.20173825323581696,0.7745771408081055
1772884853634324500,7.510324462890625,-0.26771169900894165,0.18096883594989777,0.8709411025047302
1772884853650964500,7.526964599609375,-0.2889392673969269,0.25244006514549255,0.9361509680747986
1772884853667567000,7.543567138671875,-0.290313720703125,0.33857205510139465,0.8955284357070923
1772884853684181500,7.560181396484375,-0.27519479393959045,0.4173736870288849,0.7076873779296875
1772884853700767700,7.576767822265625,-0.1621847152709961,0.4046982228755951,0.5700899958610535
1772884853717392000,7.593391845703125,-0.011759156361222267,0.19349156320095062,0.6997461318969727
1772884853733966000,7.609966064453125,0.09208793938159943,-0.16401731967926025,0.9873109459877014
1772884853750592800,7.6265927734375,0.10812314599752426,-0.4550946056842804,1.1826350688934326
1772884853767196200,7.643196044921875,0.0659734457731247,-0.4343251883983612,1.054964303970337
1772884853783808800,7.659808837890625,0.053297992795705795,-0.09483683109283447,0.6473644375801086
1772884853800402700,7.676402587890625,0.09315694868564606,0.2246456891298294,0.19776763021945953
1772884853817020200,7.693020263671875,0.12736541032791138,0.12263119965791702,-0.24404066801071167
1772884853833623600,7.70962353515625,0.2252565622329712,-0.36850446462631226,-0.9196576476097107
1772884853850252300,7.726252197265625,0.3828597962856293,-0.4590652287006378,-1.627497673034668
1772884853866850300,7.742850341796875,0.4893030524253845,-0.1212567538022995,-2.043344259262085
1772884853883466000,7.759466064453125,0.4489859640598297,0.06719517707824707,-1.9381227493286133
1772884853900051500,7.776051513671875,0.37201693654060364,-0.16233743727207184,-1.3381003141403198
1772884853916675300,7.79267529296875,0.39614611864089966,-0.6146831512451172,-0.8159632682800293
1772884853933273000,7.809273193359375,0.43279802799224854,-0.9518807530403137,-0.636521577835083
1772884853949889800,7.825889892578125,0.39767327904701233,-0.7912232279777527,-0.7866417169570923
1772884853966488300,7.84248828125,0.2893974184989929,-0.027641652151942253,-1.130406141281128
1772884853983111400,7.859111328125,0.14049901068210602,0.8323038816452026,-1.4321736097335815
1772884853999693300,7.875693359375,0.015118914656341076,1.2744176387786865,-1.5601497888565063
1772884854016317700,7.892317626953125,-0.10155634582042694,1.0358747243881226,-1.4552336931228638
1772884854032918300,7.908918212890625,-0.12996158003807068,0.4072943925857544,-0.8881980776786804
1772884854049527800,7.92552783203125,-0.12797626852989197,-0.1661553531885147,-0.018020525574684143
1772884854066134300,7.94213427734375,-0.04505131021142006,-0.4605923891067505,0.6835582256317139
1772884854082748700,7.958748779296875,0.008857546374201775,-0.5242751240730286,0.8962920308113098
1772884854099342600,7.975342529296875,0.005192354787141085,-0.27259862422943115,0.6826419234275818
1772884854115959000,7.991958984375,-0.037110064178705215,0.05619960278272629,0.2819143235683441
1772884854132554500,8.008554443359374,-0.00855211354792118,0.25732699036598206,-0.1927279829978943
1772884854149174800,8.0251748046875,0.09987647086381912,0.3962988257408142,-0.5729916095733643
1772884854165771300,8.041771240234375,0.1768454909324646,0.4824308156967163,-0.4918992519378662
1772884854182391300,8.058391357421876,0.16294831037521362,0.3494149148464203,0.206777885556221
1772884854198976800,8.074976806640626,0.1463022232055664,-0.3139847218990326,1.2518155574798584
1772884854215584300,8.091584228515625,-0.05665775015950203,-1.3451253175735474,1.8431332111358643
1772884854232209000,8.108208984375,-0.20326541364192963,-2.2120957374572754,1.0674870014190674
1772884854248801800,8.1248017578125,-0.17272214591503143,-1.6708691120147705,-0.5920811295509338
1772884854265407700,8.14140771484375,-0.23426681756973267,-0.20357084274291992,-2.1149682998657227
1772884854282015700,8.158015625,-0.32528573274612427,0.9425650835037231,-3.173597574234009
1772884854298619000,8.174618896484375,-0.18035796284675598,1.2614367008209229,-3.3815972805023193
1772884854315229200,8.191229248046875,-0.007024950347840786,0.9049968719482422,-2.6754369735717773
1772884854331851500,8.2078515625,0.004581489134579897,0.10965031385421753,-1.3941471576690674
1772884854348457200,8.224457275390625,-0.164170041680336,-0.6785185933113098,-0.1394299864768982
1772884854365064700,8.241064697265625,-0.32330042123794556,-0.879187822341919,0.6655376553535461
1772884854381669600,8.257669677734375,-0.31642818450927734,-0.41431936621665955,0.8379544019699097
1772884854398255000,8.274255126953125,-0.20204368233680725,0.28557950258255005,0.4489859640598297
1772884854414885000,8.290885009765624,-0.19226983189582825,1.0800096988677979,-0.16584990918636322
1772884854431476500,8.3074765625,-0.07712173461914062,1.3454307317733765,-0.41630467772483826
1772884854448099300,8.324099365234375,0.08048149943351746,0.9581421613693237,-0.41951170563697815
1772884854464698400,8.340698486328124,0.21823160350322723,0.6362161636352539,-0.206777885556221
1772884854481312800,8.357312744140625,0.22586742043495178,0.5497786998748779,0.12476922571659088
1772884854497902300,8.37390234375,0.15622878074645996,0.7292203903198242,0.4294382631778717
1772884854514526700,8.390526611328125,0.07727445662021637,0.9010262489318848,0.5974262356758118
1772884854531116300,8.4071162109375,-0.015118914656341076,0.8504771590232849,0.5500841736793518
1772884854547741400,8.423741455078124,-0.029474247246980667,0.6397286057472229,0.40851613879203796
1772884854564347100,8.44034716796875,0.07452555745840073,0.608421802520752,0.517250120639801
1772884854580954400,8.456954345703124,0.2591595947742462,0.9301950335502625,0.9831876158714294
1772884854597531600,8.47353173828125,0.48609602451324463,1.2760975360870361,1.6030631065368652
1772884854614168800,8.4901689453125,0.651945948600769,1.0097602605819702,1.916131615638733
1772884854630762500,8.506762451171875,0.5890268087387085,0.1560760736465454,1.8417587280273438
1772884854647382800,8.5233828125,0.3098613917827606,-0.33246341347694397,1.4356859922409058
1772884854663985400,8.5399853515625,0.24236078560352325,-0.3355177342891693,0.7938193678855896
1772884854680599600,8.556599609375,0.4017966091632843,-0.35811975598335266,0.13637566566467285
1772884854697213200,8.573213134765625,0.470060795545578,-0.3355177342891693,-0.8287914395332336
1772884854713793000,8.58979296875,0.28359419107437134,0.17287486791610718,-2.018451452255249
1772884854730389800,8.6063896484375,0.07849618047475815,0.6713408827781677,-2.7768406867980957
1772884854747010800,8.6230107421875,-0.10842858254909515,0.5351179838180542,-2.7986791133880615
1772884854763614200,8.6396142578125,-0.041233405470848083,-0.19914206862449646,-2.1949915885925293
1772884854780227600,8.6562275390625,0.3804163336753845,-1.073595643043518,-1.357953429222107
1772884854796830700,8.672830810546875,0.8185594081878662,-1.4747813940048218,-0.5920811295509338
1772884854813438500,8.6894384765625,1.048092007637024,-1.1314750909805298,-0.24617868661880493
1772884854830039000,8.7060390625,0.8223773241043091,-0.07956519722938538,-0.25824329257011414
1772884854846665700,8.722665771484374,0.3660610020160675,0.9882272481918335,-0.2964223623275757
1772884854863269600,8.73926953125,-0.015118914656341076,1.4366023540496826,-0.31322115659713745
1772884854879883300,8.75588330078125,-0.21151208877563477,1.216843605041504,-0.230448916554451
1772884854896469800,8.7724697265625,-0.2298380434513092,0.5647448897361755,0.033597588539123535
1772884854913094000,8.789093994140625,-0.03833179548382759,0.18600846827030182,0.574976921081543
1772884854929692200,8.805692138671875,0.2353358417749405,-0.19517144560813904,1.0627528429031372
1772884854946308000,8.82230810546875,0.3119994103908539,-0.46364670991897583,1.2916746139526367
1772884854962913500,8.83891357421875,0.2203696370124817,-0.21120665967464447,1.1549934148788452
1772884854979522300,8.855522216796874,0.10262536257505417,0.1385136991739273,0.7693848013877869
1772884854996098300,8.872098388671875,-0.05864306539297104,0.09285151958465576,0.3549126982688904
1772884855012736000,8.888736083984375,-0.15851953625679016,-0.21853704750537872,0.20295998454093933
1772884855029309400,8.905309326171874,-0.07162395119667053,-0.4005748927593231,0.351400226354599
1772884855045950200,8.9219501953125,0.03344487398862839,-0.21899518370628357,0.9312640428543091
1772884855062548500,8.938548583984375,0.10186178237199783,-0.25732699036598206,1.6241379976272583
1772884855079171000,8.955171142578125,0.17837265133857727,-0.6982190012931824,1.9770653247833252
1772884855095751200,8.971751220703124,0.15271630883216858,-0.8350527882575989,1.6282613277435303
1772884855112380400,8.98838037109375,-0.02275473065674305,-0.34055736660957336,0.801913321018219
1772884855128971500,9.004971435546874,-0.13668109476566315,0.18310685455799103,0.1485929638147354
1772884855145592300,9.02159228515625,-0.15729780495166779,0.1466076523065567,-0.2612976133823395
1772884855162192100,9.038192138671874,-0.20112738013267517,-0.005497787147760391,-0.6345362663269043
1772884855178810600,9.054810546875,-0.11133018881082535,0.0731511116027832,-1.042594313621521
1772884855195404000,9.071404052734374,0.08720101416110992,0.40912699699401855,-1.285413146018982
1772884855212006100,9.088006103515625,0.22663100063800812,0.48808133602142334,-1.1994339227676392
1772884855228601000,9.10460107421875,0.25931230187416077,0.23273965716362,-0.8585711121559143
1772884855245219800,9.1212197265625,0.2611449062824249,-0.14156801998615265,-0.48487427830696106
1772884855261824300,9.13782421875,0.25503623485565186,-0.36942076683044434,-0.2669481039047241
1772884855278437000,9.15443701171875,0.2148718535900116,-0.27458393573760986,-0.2802344262599945
1772884855295040000,9.1710400390625,0.16768251359462738,0.047189339995384216,-0.4940372705459595
1772884855311650800,9.18765087890625,0.08567385375499725,0.49556443095207214,-0.6530149579048157
1772884855328267300,9.204267333984374,-0.011759156361222267,0.9187413454055786,-0.29107728600502014
1772884855344875300,9.220875244140625,0.05742133408784866,0.626747727394104,0.1362229436635971
1772884855361477000,9.23747705078125,0.07131851464509964,0.1736384481191635,0.36300668120384216
1772884855378094300,9.25409423828125,0.036651913076639175,-0.03084869496524334,0.18005253374576569
1772884855394678500,9.270678466796875,-0.040164388716220856,0.1944078654050827,-0.10323622822761536
