time,seconds_elapsed,z,y,x
1772884846252524300,0.128524169921875,0.008399397134780884,-0.07131851464509964,0.24144448339939117
1772884846269142300,0.145142333984375,0.026572637259960175,-0.08506298810243607,0.2330450862646103
1772884846285741800,0.161741943359375,0.030085112899541855,-0.048716504126787186,0.17180584371089935
1772884846302343400,0.178343505859375,0.018936822190880775,-0.02825251780450344,0.13454307615756989
1772884846318959000,0.194958984375,-0.008857546374201775,-0.026572637259960175,0.14278975129127502
1772884846335561500,0.2115615234375,-0.03680463135242462,-0.013744467869400978,0.14874568581581116
1772884846352194800,0.22819482421875,-0.057879481464624405,0.012522737495601177,0.13897185027599335
1772884846368793300,0.24479345703125,-0.06230825558304787,0.09056077152490616,0.10186178237199783
1772884846385395700,0.261395751953125,-0.06230825558304787,0.1411098688840866,0.08078692853450775
1772884846402014000,0.278013916015625,-0.04108068719506264,0.15393804013729095,0.1033889427781105
1772884846418614000,0.294614013671875,-0.01114829070866108,0.08261952549219131,0.17501288652420044
1772884846435220200,0.31122021484375,0.030085112899541855,0.03680463135242462,0.2226603776216507
1772884846451826400,0.327826416015625,0.059864792972803116,0.023518312722444534,0.21899518370628357
1772884846468438800,0.344438720703125,0.07147123664617538,0.028405234217643738,0.1618792861700058
1772884846485040600,0.36104052734375,0.08200865983963013,0.07223481684923172,0.08674286305904388
1772884846501648100,0.377648193359375,0.07910704612731934,0.08888089656829834,0.014355333521962166
1772884846518257200,0.394257080078125,0.03741549700498581,0.10903944820165634,0.003817907767370343
1772884846534861300,0.410861328125,-0.025045474991202354,0.09926560521125793,0.07101308554410934
1772884846551491300,0.4274912109375,-0.03237585723400116,0.02229658141732216,0.13118331134319305
1772884846568078300,0.444078369140625,-0.016493361443281174,-0.0022907445672899485,0.16233743727207184
1772884846584686000,0.46068603515625,-0.008399397134780884,0.024892758578062057,0.17012597620487213
1772884846601287400,0.477287353515625,-0.020922135561704636,0.054367005825042725,0.14905111491680145
1772884846617899800,0.493899658203125,-0.03940080851316452,0.041233405470848083,0.09941831976175308
1772884846634504400,0.51050439453125,-0.05115996301174164,0.03191770985722542,0.034666601568460464
1772884846651096000,0.527095947265625,-0.05742133408784866,0.017562376335263252,-0.00855211354792118
1772884846667720000,0.543719970703125,-0.05955936014652252,0.015271631069481373,-0.017867809161543846
1772884846684320300,0.5603203125,-0.048258353024721146,0.014049900695681572,0.007177666760981083
1772884846700938200,0.576938232421875,-0.03451388701796532,0.07040221989154816,0.03420845419168472
1772884846717540900,0.593540771484375,0.014202617108821869,0.20051652193069458,0.024434609338641167
1772884846734147600,0.610147705078125,0.1062905490398407,0.3628539443016052,-0.013897184282541275
1772884846750737700,0.626737548828125,0.14416420459747314,0.4285219609737396,-0.07116580009460449
1772884846767347700,0.64334765625,0.1615738570690155,0.29764407873153687,-0.1722639948129654
1772884846783951600,0.65995166015625,0.16798794269561768,0.19364428520202637,-0.26481008529663086
1772884846800564700,0.676564697265625,0.21762074530124664,0.018325956538319588,-0.3799581825733185
1772884846817170000,0.693169921875,0.3562871515750885,-0.07437284290790558,-0.4905247986316681
1772884846833774300,0.7097744140625,0.5140430927276611,-0.1339322030544281,-0.5998696684837341
1772884846850400000,0.72639990234375,0.589790403842926,-0.22815817594528198,-0.6125451326370239
1772884846867002400,0.74300244140625,0.561079740524292,-0.16111570596694946,-0.48288896679878235
1772884846883606000,0.75960595703125,0.4476115107536316,0.05772676691412926,-0.3098613917827606
1772884846900220400,0.776220458984375,0.20830504596233368,0.22876903414726257,-0.22800545394420624
1772884846916823600,0.792823486328125,-0.1915062516927719,0.1719585657119751,-0.24602597951889038
1772884846933435400,0.809435302734375,-0.5390886068344116,-0.021991148591041565,-0.23105977475643158
1772884846950041300,0.826041259765625,-0.7269296646118164,0.052839845418930054,-0.13087788224220276
1772884846966616000,0.842615966796875,-0.84574294090271,0.4282165467739105,-0.08796459436416626
1772884846983238000,0.85923779296875,-0.9256135821342468,0.8788823485374451,-0.2638937830924988
1772884846999845600,0.875845703125,-0.9388998746871948,0.8921687006950378,-0.5801692605018616
1772884847016457700,0.892457763671875,-0.6383541822433472,0.8539896011352539,-0.4421137273311615
1772884847033062700,0.909062744140625,-0.3349068760871887,0.9743300676345825,0.08796459436416626
1772884847049666800,0.925666748046875,-0.21670444309711456,0.9812023043632507,0.5978843569755554
1772884847066277600,0.942277587890625,-0.1866193264722824,0.4671591818332672,0.7411322593688965
1772884847082893000,0.95889306640625,-0.033139441162347794,-0.4787656366825104,0.6774495840072632
1772884847099507500,0.975507568359375,0.15653422474861145,-1.4089607000350952,0.5387831330299377
1772884847116110800,0.99211083984375,0.16554448008537292,-2.0648772716522217,0.23579397797584534
1772884847132722200,1.00872216796875,0.11423180252313614,-2.221564292907715,-0.32268956303596497
1772884847149326800,1.025326904296875,-0.0064140851609408855,-2.088701009750366,-1.2731958627700806
1772884847165924600,1.041924560546875,-0.13500121235847473,-2.1459696292877197,-2.336406946182251
1772884847182544600,1.058544677734375,-0.1898263692855835,-2.4979805946350098,-3.124575614929199
1772884847199143000,1.075142822265625,-0.052839845418930054,-2.7398834228515625,-3.701232433319092
1772884847215741200,1.0917412109375,-0.027030786499381065,-2.481945514678955,-3.8334848880767822
1772884847232348200,1.10834814453125,-0.18478673696517944,-1.868789553642273,-3.349985122680664
1772884847248951600,1.12495166015625,-0.4112650156021118,-0.936609148979187,-2.308459758758545
1772884847265558000,1.14155810546875,-0.6719517707824707,0.1391245573759079,-1.016479730606079
1772884847282164000,1.1581640625,-0.7550294399261475,0.6104071140289307,-0.09712757170200348
1772884847298772000,1.17477197265625,-0.6229298114776611,0.3908010423183441,0.15592335164546967
1772884847315377700,1.191377685546875,-0.4260784983634949,0.11209376901388168,0.2292271852493286
1772884847331987500,1.207987548828125,-0.18860463798046112,-0.11362093687057495,0.29474249482154846
1772884847348609000,1.224609130859375,-0.09834930300712585,-0.3182607889175415,0.33292156457901
1772884847365212400,1.24121240234375,-0.13271047174930573,-0.37690386176109314,0.34345898032188416
1772884847381818600,1.257818603515625,-0.19135354459285736,-0.39248090982437134,0.3243694305419922
1772884847398438000,1.27443798828125,-0.3101668357849121,-0.44974952936172485,0.30833423137664795
1772884847415039500,1.29103955078125,-0.40912699699401855,-0.26022860407829285,0.33200526237487793
1772884847431634000,1.307634033203125,-0.518471896648407,0.07269296050071716,0.46792277693748474
1772884847448233000,1.32423291015625,-0.6783658266067505,0.4473060667514801,0.6586654782295227
1772884847464854000,1.34085400390625,-0.7405213713645935,0.8419250249862671,0.6505714654922485
1772884847481447000,1.357447021484375,-0.6550002694129944,1.0968085527420044,0.38499781489372253
1772884847498070300,1.3740703125,-0.6183483600616455,1.021824836730957,0.1719585657119751
1772884847514661400,1.390661376953125,-0.6730207800865173,0.9088147878646851,0.14966198801994324
1772884847531258600,1.407258544921875,-0.7461718916893005,1.0868819952011108,0.17150041460990906
1772884847547890200,1.42389013671875,-0.726471483707428,1.1326968669891357,0.5097670555114746
1772884847564501500,1.44050146484375,-0.5697845816612244,1.2935070991516113,1.5451836585998535
1772884847581107500,1.457107421875,-0.09957103431224823,2.107332468032837,2.973386526107788
1772884847597712100,1.473712158203125,0.6821837425231934,2.0705277919769287,3.406337261199951
1772884847614323000,1.490322998046875,0.9902125597000122,0.9356928467750549,3.152064561843872
1772884847630920700,1.506920654296875,0.6670648455619812,-1.0881037712097168,2.6537513732910156
1772884847647533300,1.523533203125,-0.03329215571284294,-2.643519401550293,1.5822937488555908
1772884847664140000,1.54014013671875,-0.42562034726142883,-2.4223861694335938,0.09987647086381912
1772884847680746800,1.556746826171875,-0.5290092825889587,-0.03481931984424591,-0.7738135457038879
1772884847697355300,1.573355224609375,-0.33689218759536743,1.9851592779159546,0.12018773704767227
1772884847713955000,1.589955078125,0.11759155988693237,1.7408132553100586,0.984867513179779
1772884847730555400,1.606555419921875,0.6679811477661133,-0.17333301901817322,0.11774427443742752
1772884847747161600,1.62316162109375,1.0366383790969849,-1.8875735998153687,-1.216843605041504
1772884847763767300,1.639767333984375,1.1470521688461304,-2.4967589378356934,-1.7881553173065186
1772884847780375600,1.65637548828125,1.2331842184066772,-2.023949384689331,-2.1252002716064453
1772884847796982800,1.672982666015625,1.2736539840698242,-1.088409185409546,-2.5031731128692627
1772884847813584000,1.689583984375,0.9534079432487488,-0.394618958234787,-2.8264734745025635
1772884847830204000,1.706203857421875,0.2678644061088562,-0.35811975598335266,-3.37823748588562
1772884847846815700,1.722815673828125,-0.5274821519851685,-0.7232644557952881,-3.09281063079834
1772884847863428400,1.739428466796875,-0.6325509548187256,-0.9642508029937744,-1.5176947116851807
1772884847880031700,1.75603173828125,-0.2571742534637451,-1.0922271013259888,0.19562959671020508
1772884847896636000,1.772635986328125,-0.06658431142568588,-1.2454015016555786,1.2192870378494263
1772884847913240000,1.789239990234375,-0.05726861581206322,-1.1691961288452148,1.009149432182312
1772884847929855500,1.80585546875,-0.4216497242450714,-0.5274821519851685,0.4726569950580597
1772884847946446600,1.822446533203125,-0.825584352016449,-0.08720101416110992,-0.10567969083786011
1772884847963076600,1.83907666015625,-1.134834885597229,0.33017265796661377,-0.4951062798500061
1772884847979660500,1.85566064453125,-1.1853840351104736,0.4101960062980652,-0.6243042945861816
1772884847996280000,1.872280029296875,-0.9460775256156921,0.004428773187100887,-0.323147714138031
1772884848012878800,1.88887890625,-0.6475171446800232,-0.640644907951355,0.40026944875717163
1772884848029496800,1.905496826171875,-0.5258022546768188,-1.0010554790496826,1.0386236906051636
1772884848046100700,1.922100830078125,-0.4804455041885376,-0.9272934198379517,1.188132882118225
1772884848062709200,1.938709228515625,-0.5117523670196533,-0.3930917978286743,0.9356928467750549
1772884848079321300,1.9553212890625,-0.5112941861152649,0.12889257073402405,0.6496551632881165
1772884848095910700,1.97191064453125,-0.470060795545578,0.37797287106513977,0.5974262356758118
1772884848112528600,1.988528564453125,-0.3712533414363861,0.20082195103168488,0.7012733221054077
1772884848129127400,2.00512744140625,-0.2955060601234436,-0.10934487730264664,0.888350784778595
1772884848145741800,2.021741943359375,-0.42241331934928894,-0.06734789162874222,0.9998337030410767
1772884848162348500,2.0383486328125,-0.4645630121231079,0.21441370248794556,0.930347740650177
1772884848178958600,2.05495849609375,-0.44455718994140625,0.6436992287635803,0.7967209815979004
1772884848195557400,2.071557373046875,-0.5022839307785034,0.9764680862426758,0.7559457421302795
1772884848212153300,2.0881533203125,-0.6139195561408997,1.07771897315979,0.8170322775840759
1772884848228764700,2.1047646484375,-0.6351471543312073,1.122159481048584,0.8373435139656067
1772884848245370400,2.121370361328125,-0.535881519317627,1.1892019510269165,0.6979135274887085
1772884848261983200,2.137983154296875,-0.6140722632408142,1.094059705734253,0.3455969989299774
1772884848278572800,2.15457275390625,-0.7415903806686401,1.0453431606292725,0.1722639948129654
1772884848295194000,2.171194091796875,-1.0279334783554077,1.1827877759933472,0.21868975460529327
1772884848311796200,2.187796142578125,-1.1172724962234497,1.9175059795379639,0.603076696395874
1772884848328417500,2.20441748046875,-0.6910412907600403,2.8006644248962402,1.3837624788284302
1772884848345015300,2.221015380859375,-0.16432274878025055,3.0644054412841797,2.4191792011260986
1772884848361623600,2.23762353515625,0.16019940376281738,2.6841418743133545,2.6949846744537354
1772884848378242800,2.254242919921875,0.42989641427993774,1.7644842863082886,1.4332425594329834
1772884848394849300,2.270849365234375,0.32299500703811646,-0.02321287989616394,0.06887505948543549
1772884848411435800,2.287435791015625,-0.11270463466644287,-1.6801848411560059,-1.0900890827178955
1772884848428066800,2.30406689453125,-0.2551889419555664,-1.8289304971694946,-2.149634838104248
1772884848444669400,2.32066943359375,-0.051770828664302826,-0.8846855759620667,-2.4246768951416016
1772884848461280000,2.337280029296875,0.06902777403593063,-0.7200574278831482,-2.861140012741089
1772884848477882600,2.353882568359375,-0.23884831368923187,-1.2235630750656128,-3.2673654556274414
1772884848494487000,2.370487060546875,-0.33475416898727417,-1.8501580953598022,-2.7768406867980957
1772884848511082800,2.387082763671875,0.12858712673187256,-2.4996604919433594,-1.4253013134002686
1772884848527709400,2.40370947265625,0.7145596146583557,-2.8744263648986816,-0.29367345571517944
1772884848544306700,2.420306640625,1.0453431606292725,-2.6166412830352783,0.19120082259178162
1772884848560915500,2.43691552734375,1.0699304342269897,-1.7321083545684814,0.11438451707363129
1772884848577534500,2.453534423828125,0.868803083896637,-0.8547531962394714,-0.20402899384498596
1772884848594129200,2.470129150390625,0.5792529582977295,-0.4531092941761017,-0.34574973583221436
1772884848610744300,2.486744384765625,0.36789360642433167,-0.6246097087860107,-0.19807305932044983
1772884848627349500,2.503349609375,0.28069257736206055,-0.7699956297874451,0.03298672288656235
1772884848643952400,2.519952392578125,0.23396138846874237,-0.65958172082901,0.2762638032436371
1772884848660560100,2.53656005859375,0.18112154304981232,-0.38377609848976135,0.504574716091156
1772884848677171700,2.553171630859375,0.1371392458677292,-0.08949175477027893,0.6769914031028748
1772884848693771800,2.569771728515625,0.04199698567390442,0.1319468915462494,0.7354817390441895
1772884848710382300,2.58638232421875,-0.056352317333221436,0.2996293902397156,0.7893906235694885
1772884848726973200,2.60297314453125,-0.20662516355514526,0.35781431198120117,0.7828238010406494
1772884848743583200,2.619583251953125,-0.5271766781806946,0.327271044254303,0.5412266254425049
1772884848760190000,2.63618994140625,-1.0155634880065918,0.09529497474431992,0.5542075037956238
1772884848776796400,2.65279638671875,-1.5007431507110596,0.07483099400997162,0.6113234162330627
1772884848793407000,2.669406982421875,-1.831221342086792,0.7473936080932617,0.6633996367454529
1772884848810011100,2.68601123046875,-1.962251901626587,1.5625933408737183,0.7203628420829773
1772884848826633000,2.702633056640625,-1.8938349485397339,1.6126842498779297,0.7024950385093689
1772884848843230500,2.71923046875,-1.649488925933838,1.5978707075119019,0.5946773290634155
1772884848859851800,2.735851806640625,-1.1044443845748901,1.8235855102539062,0.06459899991750717
1772884848876439800,2.752439697265625,-0.14217889308929443,3.263700246810913,0.16065755486488342
1772884848893074700,2.76907470703125,0.9048441648483276,4.0072760581970215,0.4092797040939331
1772884848909649200,2.785649169921875,1.1565206050872803,2.922532081604004,0.9048441648483276
1772884848926274300,2.8022744140625,0.6021603941917419,1.5285375118255615,1.5108224153518677
1772884848942876400,2.81887646484375,0.41462478041648865,0.46364670991897583,1.5723671913146973
1772884848959491800,2.835491943359375,0.8042041063308716,-0.722348153591156,1.1815661191940308
1772884848976093700,2.85209375,0.9221010804176331,-2.096489429473877,0.31184670329093933
1772884848992685600,2.868685546875,1.0030407905578613,-2.8519771099090576,-0.6125451326370239
1772884849009305900,2.885305908203125,1.2646437883377075,-2.9179506301879883,-1.5346461534500122
1772884849025917400,2.90191748046875,1.3542882204055786,-2.218967914581299,-2.417957305908203
1772884849042520300,2.918520263671875,1.2040153741836548,-1.289536476135254,-2.8020389080047607
1772884849059125800,2.935125732421875,1.1039862632751465,-0.504574716091156,-2.4124596118927
1772884849075739600,2.95173974609375,0.8831584453582764,0.22082778811454773,-1.2635747194290161
1772884849092342800,2.9683427734375,0.6522513628005981,1.03984534740448,0.20845776796340942
1772884849108946400,2.984946533203125,0.755182147026062,0.5077817440032959,0.8110763430595398
1772884849125560000,3.00156005859375,0.912938117980957,-0.2272418737411499,0.945772111415863
1772884849142163500,3.01816357421875,0.9082038998603821,-0.5209153294563293,0.9384417533874512
1772884849158763800,3.034763671875,0.7625125646591187,-0.4011857509613037,0.8674286603927612
1772884849175385600,3.051385498046875,0.5230533480644226,0.14996741712093353,0.7594582438468933
1772884849191984600,3.067984619140625,0.37110063433647156,0.8651378750801086,0.7396050691604614
1772884849208590000,3.084590087890625,0.2269364446401596,1.193477988243103,0.6887505650520325
1772884849225185300,3.101185302734375,0.08017606288194656,1.2082914113998413,0.5641340613365173
1772884849241791700,3.117791748046875,-0.0734565481543541,1.0282388925552368,0.3781255781650543
1772884849258403600,3.134403564453125,-0.2635883390903473,0.737772524356842,0.04856378585100174
1772884849274988500,3.150988525390625,-0.5068654417991638,0.7773260474205017,-0.15286903083324432
1772884849291609600,3.167609619140625,-0.503047525882721,1.4161384105682373,0.17928895354270935
1772884849308219100,3.18421923828125,-0.19456058740615845,2.349998712539673,0.9738719463348389
1772884849324831500,3.20083154296875,0.2451096773147583,2.8516716957092285,1.6352862119674683
1772884849341422600,3.217422607421875,0.5094616413116455,1.971109390258789,1.3660473823547363
1772884849358042600,3.234042724609375,0.34177911281585693,0.351400226354599,0.1495092660188675
1772884849374652700,3.250652587890625,0.20234911143779755,-0.7087563872337341,-1.0693196058273315
1772884849391249400,3.26724951171875,0.2226603776216507,-1.3132075071334839,-1.7647897005081177
1772884849407878400,3.28387841796875,0.28466320037841797,-1.7357735633850098,-2.252260208129883
1772884849424487700,3.30048779296875,0.4424191415309906,-1.7594445943832397,-2.2261457443237305
1772884849441090800,3.3170908203125,0.6681338548660278,-1.4045319557189941,-1.8938349485397339
1772884849457698300,3.3336982421875,0.8460483551025391,-0.9421069025993347,-1.8692476749420166
1772884849474305500,3.350305419921875,0.7713701128959656,-0.4948008358478546,-2.0867156982421875
1772884849490894600,3.36689453125,0.6035348773002625,-0.14538592100143433,-1.9590448141098022
1772884849507519500,3.38351953125,0.5679519772529602,0.1316414624452591,-1.1633929014205933
1772884849524130600,3.400130615234375,0.46364670991897583,0.20311269164085388,-0.04932736977934837
1772884849540733000,3.41673291015625,0.43417248129844666,0.3013092875480652,0.8333728909492493
1772884849557340400,3.43334033203125,0.40133845806121826,0.4453207552433014,1.069472312927246
1772884849573948000,3.449947998046875,0.38438695669174194,0.6017022728919983,0.8662069439888
1772884849590549500,3.466549560546875,0.379652738571167,0.6864598393440247,0.761443555355072
1772884849607161300,3.483161376953125,0.313373863697052,0.7883216142654419,0.8906415104866028
1772884849623773200,3.499773193359375,0.08078692853450775,0.5836817622184753,0.95462965965271
1772884849640375300,3.516375244140625,-0.08888089656829834,0.44654250144958496,1.2067643404006958
1772884849656982300,3.532982177734375,-0.25335636734962463,0.1742493063211441,1.2063060998916626
1772884849673588700,3.549588623046875,-0.2554943859577179,0.02626720629632473,1.0224356651306152
1772884849690219300,3.56621923828125,-0.27748554944992065,0.15424346923828125,0.9225592613220215
1772884849706801400,3.582801513671875,-0.14523321390151978,0.7826710939407349,1.3194689750671387
1772884849723415800,3.599415771484375,-0.0065668015740811825,1.8409950733184814,2.3153319358825684
1772884849740017400,3.616017333984375,0.4008803069591522,2.252565622329712,2.691166877746582
1772884849756621000,3.63262109375,0.7661777138710022,1.3376421928405762,1.9894354343414307
1772884849781666300,3.657666259765625,1.0286970138549805,-0.6026185750961304,0.4075998365879059
1772884849798127600,3.674127685546875,1.2857186794281006,-1.2870930433273315,-0.2767219543457031
1772884849814734000,3.690734130859375,1.1087204217910767,-1.313665747642517,-0.9437867999076843
1772884849831341800,3.707341796875,0.716697633266449,-1.214400053024292,-1.7922786474227905
1772884849847935000,3.72393505859375,0.49556443095207214,-1.1826350688934326,-2.1954495906829834
1772884849864555800,3.7405556640625,0.5378668308258057,-1.2260065078735352,-1.9845484495162964
1772884849881181200,3.75718115234375,0.6855435371398926,-1.2536481618881226,-1.620778203010559
1772884849897781500,3.773781494140625,0.6928738951683044,-0.9674578309059143,-1.3542882204055786
1772884849914385700,3.7903857421875,0.6296493411064148,-0.5447390675544739,-1.3252722024917603
1772884849930975500,3.8069755859375,0.5085453391075134,-0.21288654208183289,-1.2473868131637573
1772884849947584300,3.823584228515625,0.25473082065582275,0.014355333521962166,-0.8952230215072632
1772884849964211500,3.84021142578125,-0.036041051149368286,-0.022907447069883347,-0.2915354371070862
1772884849980824600,3.856824462890625,-0.3104722499847412,-0.07040221989154816,0.5505422949790955
1772884849997419500,3.87341943359375,-0.4720461070537567,0.11438451707363129,1.2173017263412476
1772884850014032100,3.8900322265625,-0.4265366494655609,0.6111706495285034,1.405600905418396
1772884850030639600,3.9066396484375,-0.2942843437194824,1.2487612962722778,1.2764029502868652
1772884850047229400,3.9232294921875,-0.21090123057365417,1.6716327667236328,1.1788171529769897
1772884850063853600,3.939853515625,-0.2217440903186798,1.9648480415344238,1.2785409688949585
1772884850080456000,3.9564560546875,-0.41599923372268677,1.7085901498794556,1.2701416015625
1772884850097071600,3.973071533203125,-0.7924449443817139,0.8213083148002625,1.1427761316299438
1772884850113657600,3.98965771484375,-1.0751228332519531,-0.09544769674539566,1.0430524349212646
1772884850130281000,4.006281005859375,-1.010523796081543,-0.18997909128665924,1.2365440130233765
1772884850146902300,4.02290234375,-0.7374670505523682,0.9529497623443604,1.8298468589782715
1772884850163464000,4.0394638671875,-0.13286319375038147,2.2101104259490967,2.472935199737549
1772884850180098800,4.056098876953125,0.41523563861846924,2.1847596168518066,2.297158718109131
1772884850196713500,4.07271337890625,0.709061861038208,0.8677340745925903,1.3492486476898193
1772884850213299000,4.089298828125,0.9271407127380371,-1.2322678565979004,-0.4775438904762268
1772884850229923600,4.105923583984375,1.1609493494033813,-2.1265745162963867,-1.430493712425232
1772884850246511400,4.122511474609375,1.1925616264343262,-2.0786216259002686,-1.8985692262649536
1772884850263137800,4.1391376953125,1.0877982378005981,-1.552055835723877,-2.1949915885925293
1772884850279726800,4.155726806640625,0.9796751141548157,-0.8866708874702454,-1.9882136583328247
1772884850296338200,4.172338134765625,0.9549350738525391,-0.4918992519378662,-1.6588045358657837
1772884850312944400,4.1889443359375,1.000749945640564,-0.15393804013729095,-1.7495180368423462
1772884850329551600,4.205551513671875,0.9914342761039734,0.1638645976781845,-2.015855312347412
1772884850346152400,4.22215234375,0.8008443117141724,0.4095851480960846,-2.0561723709106445
1772884850362766300,4.238766357421875,0.4564690589904785,0.6215553879737854,-1.6394095420837402
1772884850379372300,4.255372314453125,0.076052725315094,0.6287330389022827,-1.0731375217437744
1772884850395996700,4.27199658203125,-0.2539672255516052,0.4173736870288849,-0.6177374720573425
1772884850412584200,4.288584228515625,-0.48258355259895325,0.17073683440685272,-0.154396191239357
1772884850429191400,4.30519140625,-0.5351179838180542,0.06185010448098183,0.24129177629947662
1772884850445799400,4.32179931640625,-0.5103778839111328,0.10522153973579407,0.4567744731903076
1772884850462421800,4.338421875,-0.4775438904762268,0.46547931432724,0.5642867684364319
1772884850479023600,4.355023681640625,-0.4082106947898865,0.9778425693511963,0.6455318331718445
1772884850495640300,4.371640380859375,-0.3023782968521118,1.233642339706421,0.617584764957428
1772884850512225500,4.3882255859375,-0.18417587876319885,0.8918632864952087,0.7565566301345825
1772884850528855300,4.404855224609375,-0.1059851199388504,0.4205807149410248,0.5535966157913208
1772884850545433000,4.42143310546875,-0.2938261926174164,-0.42241331934928894,0.09224065393209457
1772884850562064100,4.438064208984375,-0.5117523670196533,-1.0085384845733643,0.02275473065674305
1772884850578665700,4.454665771484375,-0.48747047781944275,-0.42149701714515686,1.000749945640564
1772884850595281700,4.47128173828125,-0.2477058619260788,1.1297953128814697,2.722015619277954
1772884850611848700,4.4878486328125,-0.015577063895761967,2.0789270401000977,3.3539557456970215
1772884850628491800,4.50449169921875,0.05513058975338936,1.1940888166427612,2.118480682373047
1772884850645083100,4.521083251953125,-0.19303341209888458,-0.588874101638794,-0.3455969989299774
1772884850661706000,4.5377060546875,-0.43020185828208923,-1.794722080230713,-3.0836477279663086
1772884850678308000,4.55430810546875,-0.4447098970413208,-1.9517145156860352,-4.2697954177856445
1772884850694923300,4.57092333984375,-0.31261029839515686,-1.6247488260269165,-3.322343349456787
1772884850711544600,4.587544677734375,0.154396191239357,-1.0377073287963867,-1.5541938543319702
1772884850728133400,4.60413330078125,0.3930917978286743,-0.6870706677436829,-1.2173017263412476
1772884850744739600,4.620739501953125,0.2834414839744568,-0.2565633952617645,-2.032501459121704
1772884850761345000,4.637344970703125,0.05696318298578262,-0.1270599663257599,-3.2250630855560303
1772884850777940200,4.653940185546875,-0.038026362657547,-0.289702832698822,-2.763707160949707
1772884850794535700,4.67053564453125,-0.06520986557006836,-0.34208452701568604,-1.2912163734436035
1772884850811154200,4.687154296875,-0.037110064178705215,-0.24465152621269226,0.31810808181762695
1772884850827762000,4.703761962890625,-0.05910121276974678,-0.166460782289505,1.2858713865280151
1772884850844358700,4.720358642578125,-0.09193521738052368,-0.05696318298578262,1.396132469177246
1772884850860975900,4.736975830078125,-0.15515977144241333,-0.027183502912521362,1.0406090021133423
1772884850877582600,4.75358251953125,-0.12202033400535583,0.07635815441608429,0.8283332586288452
1772884850894207200,4.770207275390625,-0.1716531366109848,0.11178833991289139,0.8002334833145142
1772884850910810000,4.78681005859375,-0.23518311977386475,0.475253164768219,0.9728028774261475
1772884850927417300,4.803417236328125,-0.38117989897727966,0.8672759532928467,1.0844385623931885
1772884850944007400,4.82000732421875,-0.6620252132415771,0.7681630253791809,1.2496775388717651
1772884850960632300,4.83663232421875,-0.9195048809051514,0.19226983189582825,1.4268285036087036
1772884850977238500,4.853238525390625,-1.0222829580307007,-0.3776674270629883,1.4262176752090454
1772884850993845500,4.869845458984375,-0.932485818862915,-0.1768454909324646,1.4729487895965576
1772884851010434000,4.88643408203125,-0.7724391222000122,0.4899139404296875,1.8061758279800415
1772884851027059500,4.9030595703125,-0.6575964093208313,1.043968677520752,2.707965612411499
1772884851043649800,4.91964990234375,-0.408363401889801,1.1255191564559937,3.8515052795410156
1772884851060257300,4.93625732421875,-0.06643159687519073,0.7857254147529602,4.336074352264404
1772884851076880100,4.952880126953125,-0.07299839705228806,-0.07864890247583389,3.4235942363739014
1772884851093487900,4.96948779296875,-0.3303253948688507,-1.1636983156204224,1.2206615209579468
1772884851110092000,4.986092041015625,-0.09636399149894714,-1.207069754600525,-1.15178644657135
1772884851126701300,5.002701416015625,0.34513887763023376,-0.6162103414535522,-2.3463335037231445
1772884851143291400,5.01929150390625,0.5905539989471436,-0.154396191239357,-2.1569652557373047
1772884851159916300,5.035916259765625,0.8263479471206665,-0.17730364203453064,-1.6727017164230347
1772884851176518000,5.052517822265625,0.8324565887451172,-0.5477933883666992,-1.4900530576705933
1772884851193134300,5.06913427734375,0.5626068711280823,-1.135140299797058,-1.6071864366531372
1772884851209719300,5.08571923828125,0.30863967537879944,-1.1195632219314575,-1.3642147779464722
1772884851226343700,5.10234375,0.25992316007614136,-0.4602869749069214,-0.5962044596672058
1772884851242933500,5.11893359375,0.40882155299186707,0.337503045797348,0.007941247895359993
1772884851259540700,5.135540771484375,0.5369505286216736,0.7240280508995056,0.35934147238731384
1772884851276150000,5.15214990234375,0.43875396251678467,0.6285803318023682,0.6650795340538025
1772884851292758800,5.1687587890625,0.2015855312347412,0.3219259977340698,0.8727737069129944
1772884851309364200,5.1853642578125,0.04886921867728233,0.051770828664302826,1.0157161951065063
1772884851325971700,5.2019716796875,-0.04612032696604729,0.07101308554410934,1.048397421836853
1772884851342567400,5.2185673828125,-0.13209961354732513,0.31261029839515686,0.9876163601875305
1772884851359175700,5.23517578125,-0.20570887625217438,0.565203070640564,0.9660834074020386
1772884851375805400,5.251805419921875,-0.2886338233947754,0.7089090943336487,1.0030407905578613
1772884851392417800,5.268417724609375,-0.3698789179325104,0.5575672388076782,1.0598511695861816
1772884851409007600,5.285007568359375,-0.38347065448760986,0.14614951610565186,1.0306823253631592
1772884851425622500,5.30162255859375,-0.347276896238327,-0.09147707372903824,0.7967209815979004
1772884851442222300,5.318222412109375,-0.4112650156021118,-0.1264491081237793,0.49128836393356323
1772884851458842000,5.334842041015625,-0.541532039642334,0.05253441259264946,0.2880229651927948
1772884851475448000,5.351447998046875,-0.685390830039978,0.3747658133506775,0.6539312601089478
1772884851492056000,5.36805615234375,-0.6290385127067566,0.5357288122177124,1.5146403312683105
1772884851508646700,5.384646728515625,-0.3594942092895508,0.38438695669174194,2.3909265995025635
1772884851525269200,5.401269287109375,0.03039054572582245,-0.2808452844619751,2.763554334640503
1772884851541859000,5.417859130859375,0.12217304855585098,-0.5792529582977295,2.3944389820098877
1772884851558484200,5.434484130859375,-0.16050484776496887,-0.22357667982578278,1.3574953079223633
1772884851575081700,5.451081787109375,-0.47739118337631226,0.3023782968521118,-0.21120665967464447
1772884851591705600,5.46770556640625,-0.4847215712070465,0.41141775250434875,-2.1311562061309814
1772884851608305000,5.484304931640625,-0.29367345571517944,-0.01542434748262167,-3.936415672302246
1772884851624911600,5.50091162109375,0.04566217586398125,-0.5566509366035461,-4.5266642570495605
1772884851641501200,5.517501220703125,-0.01771509274840355,-1.1195632219314575,-3.5972328186035156
1772884851658125800,5.534125732421875,-0.10491610318422318,-1.599703311920166,-2.135890245437622
1772884851674728000,5.55072802734375,-0.36621370911598206,-0.499382346868515,-0.7072292566299438
1772884851691343600,5.567343505859375,-0.23426681756973267,0.5380195379257202,-0.23869559168815613
1772884851707929900,5.583929931640625,0.04535674303770065,0.8845328688621521,-0.11102475970983505
1772884851724553500,5.600553466796875,0.23075434565544128,0.5904012322425842,0.1235474944114685
1772884851741157600,5.61715771484375,0.3191770911216736,0.057879481464624405,0.2900082767009735
1772884851757750500,5.63375048828125,0.30405816435813904,-0.3149010241031647,0.27320948243141174
1772884851774360300,5.6503603515625,0.24007004499435425,-0.2431243658065796,0.11820242553949356
1772884851790967800,5.6669677734375,0.14019356667995453,0.17638733983039856,0.06841690838336945
1772884851807574000,5.683573974609375,-0.08277224004268646,0.41890084743499756,0.4862487316131592
1772884851824181800,5.700181640625,-0.30741792917251587,0.5134322643280029,1.0680978298187256
1772884851840775200,5.716775146484375,-0.3680463135242462,0.40851613879203796,1.3194689750671387
1772884851857396000,5.73339599609375,-0.34208452701568604,0.16814066469669342,1.1989758014678955
1772884851874010000,5.750010009765625,-0.2606867551803589,0.02428189292550087,0.8223773241043091
1772884851890632200,5.766632080078125,-0.19379699230194092,-0.03695734590291977,0.3439171314239502
1772884851907214600,5.783214599609375,-0.06017022579908371,-0.15164729952812195,-0.1290452778339386
1772884851923837400,5.79983740234375,0.005497787147760391,-0.11041389405727386,-0.28267788887023926
1772884851940414700,5.816414794921875,-0.004123340360820293,-0.039095375686883926,0.2590068578720093
1772884851957052200,5.83305224609375,0.11682797968387604,-0.17027868330478668,1.213025689125061
1772884851973654000,5.849654052734375,0.28680121898651123,-0.5361869931221008,2.0108156204223633
1772884851990269000,5.86626904296875,0.1293507218360901,-0.8356636762619019,2.311819553375244
1772884852006871600,5.88287158203125,-0.10644327104091644,-0.984867513179779,1.7705929279327393
1772884852023470600,5.899470703125,-0.024129176512360573,-0.8759807348251343,0.7367035150527954
1772884852040081200,5.9160810546875,0.1791362315416336,-0.9260717034339905,-0.36102136969566345
1772884852056693500,5.932693603515625,0.36972618103027344,-0.7024950385093689,-1.8141170740127563
1772884852073300000,5.949300048828125,0.2678644061088562,-0.10659598559141159,-2.9715540409088135
1772884852089890600,5.965890625,0.06001751124858856,0.31871894001960754,-3.522707223892212
1772884852106497300,5.982497314453125,-0.14233160018920898,0.34666603803634644,-3.4072535037994385
1772884852123121200,5.99912109375,-0.3246748745441437,0.008857546374201775,-2.5500569343566895
1772884852139701000,6.015700927734375,-0.3978259861469269,-0.46379944682121277,-1.335809588432312
1772884852156336000,6.032336181640625,-0.4031710624694824,-0.7108944058418274,-0.32391130924224854
1772884852172938800,6.048938720703125,-0.3269656300544739,-0.3553708493709564,-0.04657847434282303
1772884852189551600,6.065551513671875,-0.20326541364192963,0.34162637591362,-0.2900082767009735
1772884852206135300,6.08213525390625,-0.03405573591589928,0.9947940707206726,-0.6151412725448608
1772884852222767400,6.098767333984375,0.13607023656368256,1.0444267988204956,-0.6812674403190613
1772884852239353300,6.115353271484375,0.2243402600288391,0.6168211698532104,-0.39187005162239075
1772884852255960600,6.131960693359375,0.21181751787662506,0.1560760736465454,0.13286319375038147
1772884852272569600,6.148569580078125,0.1472185254096985,0.07070764899253845,0.6440047025680542
1772884852289178000,6.16517822265625,0.06261368840932846,0.1950187236070633,0.9625709056854248
1772884852305784000,6.1817841796875,0.018020525574684143,0.42989641427993774,1.05404794216156
1772884852322391300,6.198391357421875,-0.00045814894838258624,0.5965099334716797,1.0270172357559204
1772884852338984700,6.214984619140625,0.007788531947880983,0.46899178624153137,0.969443142414093
1772884852355629000,6.231629150390625,0.09498954564332962,0.2958115041255951,0.9265298843383789
1772884852372226000,6.24822607421875,0.2177734673023224,0.3136793076992035,1.0134254693984985
1772884852388833300,6.264833251953125,0.3627012372016907,0.40943244099617004,1.4167492389678955
1772884852405421600,6.281421630859375,0.5132794976234436,0.1944078654050827,1.9202549457550049
1772884852422047200,6.298047119140625,0.5106833577156067,-0.22479841113090515,2.1907155513763428
1772884852438682400,6.314682373046875,0.154396191239357,-0.3280346393585205,2.107943296432495
1772884852455241000,6.331240966796875,-0.2698497176170349,0.14416420459747314,1.376279354095459
1772884852471851300,6.347851318359375,-0.5516113042831421,0.5868887901306152,0.23945917189121246
1772884852488460000,6.3644599609375,-0.3804163336753845,0.5798638463020325,-1.31916344165802
1772884852505054200,6.38105419921875,-0.008857546374201775,0.2785545587539673,-3.040123701095581
1772884852521675300,6.39767529296875,0.16523905098438263,-0.12797626852989197,-3.7566685676574707
1772884852538285300,6.414285400390625,0.0685696229338646,-0.7498371005058289,-2.9500210285186768
1772884852554889500,6.430889404296875,-0.07666359096765518,-1.119410514831543,-1.4188872575759888
1772884852571496000,6.447495849609375,-0.10231992602348328,-0.8103127479553223,-0.6611089110374451
1772884852588103200,6.464103271484375,-0.07070764899253845,-0.010842857882380486,-0.897513747215271
1772884852604713000,6.480712890625,-0.01572977937757969,0.6533203721046448,-1.2539535760879517
1772884852621331000,6.4973310546875,0.038179077208042145,0.8326093554496765,-1.0548115968704224
1772884852637908200,6.513908203125,0.06001751124858856,0.4631885588169098,-0.3020728528499603
1772884852654545000,6.530544921875,0.05925392732024193,-0.2538145184516907,0.5824599862098694
1772884852671150800,6.54715087890625,0.0933096632361412,-0.8817839622497559,1.1342240571975708
1772884852687760000,6.563759765625,0.13148874044418335,-0.9337075352668762,1.3243558406829834
1772884852704332500,6.58033251953125,0.10384709388017654,-0.5566509366035461,1.3057245016098022
1772884852720972500,6.59697265625,0.03481931984424591,-0.11942415684461594,1.2008084058761597
1772884852737547500,6.613547607421875,0.005650503560900688,0.2765692472457886,1.0803152322769165
1772884852754173700,6.630173583984375,-0.05253441259264946,0.2817615866661072,0.9150761365890503
1772884852770776800,6.64677685546875,-0.17577648162841797,0.0731511116027832,0.6754642724990845
1772884852787390500,6.663390380859375,-0.30222558975219727,0.056352317333221436,0.23487769067287445
1772884852803993300,6.679993408203125,-0.3419318199157715,0.4082106947898865,-0.15851953625679016
1772884852820601300,6.696601318359375,-0.3654501438140869,1.0488556623458862,-0.05451972410082817
1772884852837206300,6.713206298828125,-0.303600013256073,1.426675796508789,0.5655084848403931
1772884852853832400,6.72983251953125,-0.09468411654233932,1.013272762298584,1.5428929328918457
1772884852870415400,6.746415283203125,0.14324790239334106,-0.10216721147298813,2.171473264694214
1772884852887046400,6.76304638671875,0.19226983189582825,-0.9873109459877014,2.1419990062713623
1772884852903646500,6.779646484375,0.1540907621383667,-1.1192578077316284,1.2570079565048218
1772884852920256800,6.7962568359375,0.2591595947742462,-0.5633704662322998,-0.10567969083786011
1772884852936844800,6.8128447265625,0.43417248129844666,-0.38469240069389343,-1.4269812107086182
1772884852953457700,6.829457763671875,0.47051894664764404,-0.5725334286689758,-2.4498751163482666
1772884852970073300,6.8460732421875,0.19547687470912933,-0.46670106053352356,-2.6456573009490967
1772884852986688500,6.8626884765625,-0.1238529309630394,-0.18936823308467865,-2.1091649532318115
1772884853003277000,6.879277099609375,-0.3254384696483612,-0.10216721147298813,-1.3683381080627441
1772884853019898600,6.895898681640625,-0.33429601788520813,0.050854530185461044,-0.9685268402099609
1772884853036523500,6.9125234375,-0.16371189057826996,0.12660181522369385,-1.011745572090149
1772884853053113000,6.929113037109375,0.12782354652881622,0.06536258012056351,-1.1797335147857666
1772884853069723400,6.945723388671875,0.32330042123794556,-0.03756821155548096,-1.1172724962234497
1772884853086322700,6.96232275390625,0.3223841190338135,-0.00733038317412138,-0.7924449443817139
1772884853102916600,6.97891650390625,0.16050484776496887,0.10445795953273773,-0.26603180170059204
1772884853119540700,6.995540771484375,-0.029626963660120964,0.3202461004257202,0.42088615894317627
1772884853136116500,7.012116455078125,-0.076052725315094,0.5221370458602905,0.8894197940826416
1772884853152755200,7.028755126953125,-0.08536841720342636,0.5190827250480652,1.1227703094482422
1772884853169358600,7.045358642578125,-0.10659598559141159,0.2483167201280594,1.169806957244873
1772884853185971200,7.06197119140625,-0.11331550031900406,0.01160643994808197,1.1114692687988281
1772884853202577700,7.07857763671875,-0.12721268832683563,-0.005039638374000788,0.9541715383529663
1772884853219182600,7.0951826171875,-0.13148874044418335,0.2070833146572113,0.7721336483955383
1772884853235758800,7.1117587890625,-0.15271630883216858,0.2817615866661072,0.7289149761199951
1772884853252382700,7.1283828125,-0.16249015927314758,0.11530081182718277,0.8258898258209229
1772884853268989200,7.1449892578125,-0.14813482761383057,0.03039054572582245,1.1424707174301147
1772884853285597200,7.16159716796875,-0.12247848510742188,0.10522153973579407,1.5963436365127563
1772884853302203000,7.178202880859375,-0.007941247895359993,0.021380282938480377,1.9361374378204346
1772884853318810600,7.194810546875,0.03390302136540413,-0.2538145184516907,2.0062341690063477
1772884853335409000,7.211408935546875,-0.02871066704392433,-0.3251330256462097,1.7136297225952148
1772884853352039200,7.2280390625,-0.09743300825357437,-0.17043140530586243,1.2424999475479126
1772884853368641000,7.24464111328125,-0.13240504264831543,-0.10949759185314178,0.860556423664093
1772884853385256200,7.261256103515625,-0.1014036312699318,-0.3045163154602051,0.47601673007011414
1772884853401842400,7.277842529296875,-0.0354301854968071,-0.58062744140625,-0.25854870676994324
1772884853418466300,7.29446630859375,0.0032070425804704428,-0.6253733038902283,-1.2475395202636719
1772884853435061800,7.311061767578125,-0.010537425056099892,-0.2838996350765228,-1.9309450387954712
1772884853451680500,7.327680419921875,-0.07009678333997726,0.07819075137376785,-1.9772180318832397
1772884853468282000,7.3442822265625,-0.11988230794668198,0.14767667651176453,-1.5544993877410889
1772884853484881700,7.360881591796875,-0.1215621829032898,-0.14263702929019928,-1.055269718170166
1772884853501500700,7.377500732421875,-0.10445795953273773,-0.5093088746070862,-0.727998673915863
1772884853518108200,7.394108154296875,-0.10323622822761536,-0.5926920175552368,-0.6846272349357605
1772884853534674700,7.4106748046875,-0.06200282275676727,-0.33857205510139465,-0.6989825367927551
1772884853551338200,7.427338134765625,-0.02382374368607998,0.006108652334660292,-0.4813618063926697
1772884853567933200,7.44393310546875,-0.0003054326225537807,0.2768746614456177,-0.11927144229412079
1772884853584531700,7.46053173828125,-0.0007635815418325365,0.3854559659957886,0.2652682363986969
1772884853601125600,7.477125732421875,-0.06200282275676727,0.31612277030944824,0.5905539989471436
1772884853617750000,7.49375,-0.1791362315416336,0.2018909603357315,0.7736608386039734
1772884853634324500,7.510324462890625,-0.2669481039047241,0.18112154304981232,0.8700248003005981
1772884853650964500,7.526964599609375,-0.28817567229270935,0.25244006514549255,0.9352346658706665
1772884853667567000,7.543567138671875,-0.28955012559890747,0.3387247920036316,0.8946121335029602
1772884853684181500,7.560181396484375,-0.2744311988353729,0.4173736870288849,0.7067710757255554
1772884853700767700,7.576767822265625,-0.16142113506793976,0.4046982228755951,0.5691736936569214
1772884853717392000,7.593391845703125,-0.010995574295520782,0.19349156320095062,0.6988298296928406
1772884853733966000,7.609966064453125,0.09285151958465576,-0.1638645976781845,0.9863946437835693
1772884853750592800,7.6265927734375,0.1088867336511612,-0.45494189858436584,1.1818715333938599
1772884853767196200,7.643196044921875,0.06673702597618103,-0.43417248129844666,1.0542006492614746
1772884853783808800,7.659808837890625,0.05406157299876213,-0.09468411654233932,0.6464481353759766
1772884853800402700,7.676402587890625,0.09407325088977814,0.2246456891298294,0.19685132801532745
1772884853817020200,7.693020263671875,0.1281289905309677,0.12263119965791702,-0.24495697021484375
1772884853833623600,7.70962353515625,0.22602014243602753,-0.3683517575263977,-0.9204211831092834
1772884853850252300,7.726252197265625,0.3836233615875244,-0.45891252160072327,-1.6284140348434448
1772884853866850300,7.742850341796875,0.49006664752960205,-0.1212567538022995,-2.0442605018615723
1772884853883466000,7.759466064453125,0.44974952936172485,0.06719517707824707,-1.9390389919281006
1772884853900051500,7.776051513671875,0.3727805018424988,-0.1621847152709961,-1.3390166759490967
1772884853916675300,7.79267529296875,0.3969096839427948,-0.6146831512451172,-0.8168795704841614
1772884853933273000,7.809273193359375,0.4335615932941437,-0.9517280459403992,-0.6372851729393005
1772884853949889800,7.825889892578125,0.39843684434890747,-0.7910705208778381,-0.7875580191612244
1772884853966488300,7.84248828125,0.290313720703125,-0.027641652151942253,-1.1313223838806152
1772884853983111400,7.859111328125,0.14126259088516235,0.8323038816452026,-1.4330898523330688
1772884853999693300,7.875693359375,0.015882495790719986,1.2744176387786865,-1.5610661506652832
1772884854016317700,7.892317626953125,-0.1007927656173706,1.036027431488037,-1.4561500549316406
1772884854032918300,7.908918212890625,-0.12919799983501434,0.40744712948799133,-0.8891143798828125
1772884854049527800,7.92552783203125,-0.12721268832683563,-0.1661553531885147,-0.018936822190880775
1772884854066134300,7.94213427734375,-0.044287730008363724,-0.46043968200683594,0.6826419234275818
1772884854082748700,7.958748779296875,0.009621127508580685,-0.5242751240730286,0.8953757286071777
1772884854099342600,7.975342529296875,0.005955935921519995,-0.2724458873271942,0.6817256212234497
1772884854115959000,7.991958984375,-0.03634648025035858,0.056352317333221436,0.28099802136421204
1772884854132554500,8.008554443359374,-0.007635815534740686,0.25732699036598206,-0.19349156320095062
1772884854149174800,8.0251748046875,0.10064005106687546,0.3962988257408142,-0.5739079117774963
1772884854165771300,8.041771240234375,0.17760907113552094,0.48258355259895325,-0.49266281723976135
1772884854182391300,8.058391357421876,0.16371189057826996,0.3494149148464203,0.20601430535316467
1772884854198976800,8.074976806640626,0.14706580340862274,-0.3139847218990326,1.250899314880371
1772884854215584300,8.091584228515625,-0.055894169956445694,-1.3451253175735474,1.842369556427002
1772884854232209000,8.108208984375,-0.2025018334388733,-2.2120957374572754,1.06657075881958
1772884854248801800,8.1248017578125,-0.1719585657119751,-1.6708691120147705,-0.5929974317550659
1772884854265407700,8.14140771484375,-0.23350323736667633,-0.20357084274291992,-2.115731716156006
1772884854282015700,8.158015625,-0.3243694305419922,0.9425650835037231,-3.174361228942871
1772884854298619000,8.174618896484375,-0.17959438264369965,1.2614367008209229,-3.3825135231018066
1772884854315229200,8.191229248046875,-0.006261368747800589,0.9051495790481567,-2.6763534545898438
1772884854331851500,8.2078515625,0.005345070734620094,0.10965031385421753,-1.3950635194778442
1772884854348457200,8.224457275390625,-0.16340644657611847,-0.6785185933113098,-0.14034628868103027
1772884854365064700,8.241064697265625,-0.3223841190338135,-0.8790351152420044,0.6646214127540588
1772884854381669600,8.257669677734375,-0.3156646192073822,-0.4141666293144226,0.8370380997657776
1772884854398255000,8.274255126953125,-0.20128010213375092,0.28557950258255005,0.44806966185569763
1772884854414885000,8.290885009765624,-0.1915062516927719,1.080162525177002,-0.1667662113904953
1772884854431476500,8.3074765625,-0.07635815441608429,1.345583438873291,-0.41722095012664795
1772884854448099300,8.324099365234375,0.08124507963657379,0.9581421613693237,-0.42042800784111023
1772884854464698400,8.340698486328124,0.21899518370628357,0.6363688707351685,-0.2076941877603531
1772884854481312800,8.357312744140625,0.22678372263908386,0.5497786998748779,0.1238529309630394
1772884854497902300,8.37390234375,0.1569923609495163,0.7292203903198242,0.4285219609737396
1772884854514526700,8.390526611328125,0.0780380368232727,0.9010262489318848,0.5965099334716797
1772884854531116300,8.4071162109375,-0.014355333521962166,0.8504771590232849,0.5491678714752197
1772884854547741400,8.423741455078124,-0.02871066704392433,0.6398813724517822,0.4075998365879059
1772884854564347100,8.44034716796875,0.07528914511203766,0.6085745096206665,0.5163338780403137
1772884854580954400,8.456954345703124,0.25992316007614136,0.9301950335502625,0.9822713136672974
1772884854597531600,8.47353173828125,0.48685958981513977,1.2762502431869507,1.602146863937378
1772884854614168800,8.4901689453125,0.6527095437049866,1.0097602605819702,1.915215253829956
1772884854630762500,8.506762451171875,0.589790403842926,0.15622878074645996,1.8409950733184814
1772884854647382800,8.5233828125,0.31062498688697815,-0.3323107063770294,1.4347697496414185
1772884854663985400,8.5399853515625,0.2431243658065796,-0.33536502718925476,0.7929030656814575
1772884854680599600,8.556599609375,0.40256020426750183,-0.35811975598335266,0.13545936346054077
1772884854697213200,8.573213134765625,0.47082439064979553,-0.3355177342891693,-0.8297077417373657
1772884854713793000,8.58979296875,0.28435778617858887,0.17287486791610718,-2.0193676948547363
1772884854730389800,8.6063896484375,0.07925976812839508,0.671493649482727,-2.777756929397583
1772884854747010800,8.6230107421875,-0.10766500234603882,0.5352706909179688,-2.799595355987549
1772884854763614200,8.6396142578125,-0.04046982154250145,-0.19914206862449646,-2.1959078311920166
1772884854780227600,8.6562275390625,0.38117989897727966,-1.0734429359436035,-1.3588697910308838
1772884854796830700,8.672830810546875,0.8193230032920837,-1.4747813940048218,-0.5929974317550659
1772884854813438500,8.6894384765625,1.0488556623458862,-1.1313223838806152,-0.247094988822937
1772884854830039000,8.7060390625,0.8231409192085266,-0.07941248267889023,-0.2591595947742462
1772884854846665700,8.722665771484374,0.36682456731796265,0.988379955291748,-0.29733866453170776
1772884854863269600,8.73926953125,-0.014355333521962166,1.4366023540496826,-0.31413745880126953
1772884854879883300,8.75588330078125,-0.21074850857257843,1.216843605041504,-0.23136521875858307
1772884854896469800,8.7724697265625,-0.22907446324825287,0.5648976564407349,0.032681290060281754
1772884854913094000,8.789093994140625,-0.03756821155548096,0.18600846827030182,0.5740606188774109
1772884854929692200,8.805692138671875,0.23609942197799683,-0.1950187236070633,1.0618364810943604
1772884854946308000,8.82230810546875,0.31291571259498596,-0.46364670991897583,1.2907582521438599
1772884854962913500,8.83891357421875,0.22113321721553802,-0.21105393767356873,1.154077172279358
1772884854979522300,8.855522216796874,0.1033889427781105,0.1385136991739273,0.7684684991836548
1772884854996098300,8.872098388671875,-0.057879481464624405,0.09285151958465576,0.3539963960647583
1772884855012736000,8.888736083984375,-0.15775595605373383,-0.21853704750537872,0.20204368233680725
1772884855029309400,8.905309326171874,-0.0708603709936142,-0.4005748927593231,0.3504839241504669
1772884855045950200,8.9219501953125,0.03420845419168472,-0.21899518370628357,0.930347740650177
1772884855062548500,8.938548583984375,0.10262536257505417,-0.25732699036598206,1.6232216358184814
1772884855079171000,8.955171142578125,0.1791362315416336,-0.6982190012931824,1.9763017892837524
1772884855095751200,8.971751220703124,0.15347988903522491,-0.8349000811576843,1.6273449659347534
1772884855112380400,8.98838037109375,-0.021991148591041565,-0.34055736660957336,0.8011497855186462
1772884855128971500,9.004971435546874,-0.1359175145626068,0.18325957655906677,0.14767667651176453
1772884855145592300,9.02159228515625,-0.15653422474861145,0.1466076523065567,-0.26221391558647156
1772884855162192100,9.038192138671874,-0.20036379992961884,-0.005497787147760391,-0.6354525685310364
1772884855178810600,9.054810546875,-0.11056660860776901,0.07330382615327835,-1.0433578491210938
1772884855195404000,9.071404052734374,0.08796459436416626,0.4092797040939331,-1.2861768007278442
1772884855212006100,9.088006103515625,0.22739458084106445,0.48808133602142334,-1.2003501653671265
1772884855228601000,9.10460107421875,0.2600758671760559,0.23273965716362,-0.8593347072601318
1772884855245219800,9.1212197265625,0.26190847158432007,-0.14156801998615265,-0.48579058051109314
1772884855261824300,9.13782421875,0.2557998299598694,-0.36942076683044434,-0.26771169900894165
1772884855278437000,9.15443701171875,0.21563543379306793,-0.2744311988353729,-0.2811507284641266
1772884855295040000,9.1710400390625,0.16844609379768372,0.047189339995384216,-0.49495357275009155
1772884855311650800,9.18765087890625,0.08643743395805359,0.49556443095207214,-0.6539312601089478
1772884855328267300,9.204267333984374,-0.010995574295520782,0.9187413454055786,-0.2919935882091522
1772884855344875300,9.220875244140625,0.058184914290905,0.6269004344940186,0.13530665636062622
1772884855361477000,9.23747705078125,0.07208210229873657,0.17379115521907806,0.36224308609962463
1772884855378094300,9.25409423828125,0.03741549700498581,-0.030695978552103043,0.1791362315416336
1772884855394678500,9.270678466796875,-0.03940080851316452,0.19456058740615845,-0.10399980843067169
