time,seconds_elapsed,z,y,x
1772884846252524300,0.128524169921875,9.129216194152832,4.153940200805664,-0.14416755735874176
1772884846269142300,0.145142333984375,8.809774398803711,4.153940200805664,0.005982056725770235
1772884846285741800,0.161741943359375,8.776275634765625,4.148556232452393,0.05383851006627083
1772884846302343400,0.178343505859375,9.017352104187012,4.097708702087402,0.14775680005550385
1772884846318959000,0.194958984375,9.119047164916992,4.0319061279296875,0.1663011759519577
1772884846335561500,0.2115615234375,9.037093162536621,4.073780536651611,0.1908276081085205
1772884846352194800,0.22819482421875,8.815756797790527,4.1383867263793945,0.18783657252788544
1772884846368793300,0.24479345703125,8.767900466918945,4.147359848022461,0.19262222945690155
1772884846385395700,0.261395751953125,8.895318031311035,4.221537113189697,0.09690931439399719
1772884846402014000,0.278013916015625,9.1112699508667,4.194618225097656,0.10049854964017868
1772884846418614000,0.294614013671875,9.028120040893555,4.2006001472473145,-0.09990034252405167
1772884846435220200,0.31122021484375,8.947361946105957,4.185046672821045,-0.07597211748361588
1772884846451826400,0.327826416015625,8.854640007019043,4.302893161773682,-0.016749758273363113
1772884846468438800,0.344438720703125,8.72482967376709,4.335196495056152,-0.020937198773026466
1772884846485040600,0.36104052734375,8.57348346710205,4.24785852432251,-0.03469592705368996
1772884846501648100,0.377648193359375,8.448458671569824,4.251447677612305,-0.053240302950143814
1772884846518257200,0.394257080078125,8.909076690673828,4.329214572906494,0.389431893825531
1772884846534861300,0.410861328125,9.041878700256348,4.327419757843018,0.1782652884721756
1772884846551491300,0.4274912109375,8.952147483825684,4.217947959899902,0.0011964113218709826
1772884846568078300,0.444078369140625,8.880961418151855,4.17427921295166,0.0011964113218709826
1772884846584686000,0.46068603515625,8.726624488830566,4.267001152038574,0.11246266216039658
1772884846601287400,0.477287353515625,8.486145973205566,4.350749969482422,0.12442677468061447
1772884846617899800,0.493899658203125,8.284550666809082,4.382454872131348,0.08255238085985184
1772884846634504400,0.51050439453125,8.298309326171875,4.378267288208008,0.029910283163189888
1772884846651096000,0.527095947265625,8.538787841796875,4.3417768478393555,0.06161518394947052
1772884846667720000,0.543719970703125,8.730213165283203,4.311268329620361,-0.025722842663526535
1772884846684320300,0.5603203125,8.889336585998535,4.246063709259033,-0.022133609279990196
1772884846700938200,0.576938232421875,8.766105651855469,4.163511276245117,-0.0029910283628851175
1772884846717540900,0.593540771484375,8.5100736618042,4.022933006286621,-0.11724831163883209
1772884846734147600,0.610147705078125,8.14098072052002,3.803391695022583,-0.11246266216039658
1772884846750737700,0.626737548828125,7.639684677124023,3.7770705223083496,0.053240302950143814
1772884846767347700,0.64334765625,7.16949462890625,3.6370904445648193,0.1740778535604477
1772884846783951600,0.65995166015625,6.970292568206787,3.549154281616211,0.13160525262355804
1772884846800564700,0.676564697265625,7.012166976928711,3.2781670093536377,-0.038285162299871445
1772884846817170000,0.693169921875,6.895516872406006,3.0448668003082275,-0.30209386348724365
1772884846833774300,0.7097744140625,6.893123626708984,2.7696921825408936,0.001794616924598813
1772884846850400000,0.72639990234375,6.814758777618408,2.5016961097717285,0.4737788736820221
1772884846867002400,0.74300244140625,6.4325056076049805,2.1822543144226074,1.0187442302703857
1772884846883606000,0.75960595703125,5.693721294403076,2.1517457962036133,1.4009976387023926
1772884846900220400,0.776220458984375,5.519643783569336,1.9770697355270386,2.093719720840454
1772884846916823600,0.792823486328125,6.106483459472656,2.124826431274414,2.306680917739868
1772884846933435400,0.809435302734375,7.2676005363464355,2.0691933631896973,1.8693926334381104
1772884846950041300,0.826041259765625,8.014161109924316,1.688136339187622,1.4656038284301758
1772884846966616000,0.842615966796875,9.21117115020752,1.6671991348266602,1.511067509651184
1772884846983238000,0.85923779296875,11.171490669250488,2.5124638080596924,0.8129615187644958
1772884846999845600,0.875845703125,14.551950454711914,3.868596076965332,-0.7890332937240601
1772884847016457700,0.892457763671875,17.848661422729492,4.35254430770874,-2.36291241645813
1772884847033062700,0.909062744140625,18.23988914489746,3.696911096572876,-2.9868409633636475
1772884847049666800,0.925666748046875,16.999210357666016,3.999603033065796,-3.0687949657440186
1772884847066277600,0.942277587890625,16.065410614013672,5.314459323883057,-2.9964120388031006
1772884847082893000,0.95889306640625,15.584453582763672,4.89272403717041,-2.3844478130340576
1772884847099507500,0.975507568359375,14.400006294250488,4.806582450866699,-1.5655041933059692
1772884847116110800,0.99211083984375,12.75912857055664,5.406582832336426,-0.4899304509162903
1772884847132722200,1.00872216796875,10.273584365844727,5.720042705535889,0.0526420995593071
1772884847149326800,1.025326904296875,7.719843864440918,5.474180221557617,0.3858426511287689
1772884847165924600,1.041924560546875,7.230511665344238,4.183252334594727,0.771087110042572
1772884847182544600,1.058544677734375,7.477570533752441,2.32761812210083,1.0187442302703857
1772884847199143000,1.075142822265625,8.002795219421387,0.26141586899757385,1.5170495510101318
1772884847215741200,1.0917412109375,10.045069694519043,-0.6424728631973267,2.4221346378326416
1772884847232348200,1.10834814453125,12.66580867767334,-0.4911268353462219,2.623729944229126
1772884847248951600,1.12495166015625,12.887144088745117,-0.544965386390686,1.8472590446472168
1772884847265558000,1.14155810546875,11.071590423583984,-0.1698904037475586,0.4540380835533142
1772884847282164000,1.1581640625,6.969694137573242,0.48095735907554626,-1.5314065217971802
1772884847298772000,1.17477197265625,4.225724697113037,0.7040880918502808,-2.6141586303710938
1772884847315377700,1.191377685546875,3.322434186935425,1.2394821643829346,-3.1555347442626953
1772884847331987500,1.207987548828125,2.7212376594543457,1.963310956954956,-2.9312076568603516
1772884847348609000,1.224609130859375,2.3982064723968506,2.6045875549316406,-2.169093608856201
1772884847365212400,1.24121240234375,2.0859432220458984,3.043670415878296,-1.8149559497833252
1772884847381818600,1.257818603515625,1.9992033243179321,3.0287153720855713,-1.2741780281066895
1772884847398438000,1.27443798828125,2.325225353240967,2.668595552444458,-0.7190431952476501
1772884847415039500,1.29103955078125,3.104687452316284,2.5734808444976807,-0.3655036687850952
1772884847431634000,1.307634033203125,3.7944185733795166,2.447857618331909,0.13160525262355804
1772884847448233000,1.32423291015625,3.4229328632354736,2.441875457763672,0.349352091550827
1772884847464854000,1.34085400390625,2.2193429470062256,2.3808584213256836,-0.1944168359041214
1772884847481447000,1.357447021484375,2.2953150272369385,2.8241288661956787,-0.43549370765686035
1772884847498070300,1.3740703125,4.11924409866333,3.1896326541900635,-0.0364905446767807
1772884847514661400,1.390661376953125,6.783652305603027,3.287140130996704,0.9104689955711365
1772884847531258600,1.407258544921875,9.873982429504395,3.1752755641937256,1.1312068700790405
1772884847547890200,1.42389013671875,15.19861125946045,3.0939197540283203,0.0005982056609354913
1772884847564501500,1.44050146484375,19.537397384643555,1.4362918138504028,0.10229317098855972
1772884847581107500,1.457107421875,18.566509246826172,2.2366909980773926,-1.8855443000793457
1772884847597712100,1.473712158203125,14.085948944091797,5.205585479736328,-1.6516457796096802
1772884847614323000,1.490322998046875,13.162917137145996,10.244272232055664,1.2891331911087036
1772884847630920700,1.506920654296875,14.221741676330566,13.427324295043945,4.946562767028809
1772884847647533300,1.523533203125,17.700904846191406,13.2628173828125,7.426723480224609
1772884847664140000,1.54014013671875,25.365116119384766,9.958329200744629,7.933403491973877
1772884847680746800,1.556746826171875,33.4522590637207,5.378467082977295,6.380461692810059
1772884847697355300,1.573355224609375,34.27957534790039,4.422534465789795,2.059622049331665
1772884847713955000,1.589955078125,21.025732040405273,6.767500877380371,-2.0811574459075928
1772884847730555400,1.606555419921875,11.282158851623535,8.771489143371582,-3.6945180892944336
1772884847747161600,1.62316162109375,12.730414390563965,6.895516872406006,-0.5838487148284912
1772884847763767300,1.639767333984375,14.887544631958008,3.710669755935669,2.5561327934265137
1772884847780375600,1.65637548828125,12.340384483337402,0.9595218896865845,3.8608193397521973
1772884847796982800,1.672982666015625,9.643074989318848,0.17946170270442963,5.5345988273620605
1772884847813584000,1.689583984375,7.1886372566223145,1.8418751955032349,6.74656343460083
1772884847830204000,1.706203857421875,7.6869425773620605,2.347957134246826,7.5942206382751465
1772884847846815700,1.722815673828125,14.824732780456543,2.2271196842193604,5.458028316497803
1772884847863428400,1.739428466796875,16.105491638183594,0.2829512655735016,0.2949153780937195
1772884847880031700,1.75603173828125,11.255239486694336,0.5132604837417603,-0.9625129103660583
1772884847896636000,1.772635986328125,4.125824451446533,2.362314224243164,-0.6741777658462524
1772884847913240000,1.789239990234375,0.1339980661869049,3.4498519897460938,0.9206385016441345
1772884847929855500,1.80585546875,-1.4464613199234009,3.2925238609313965,1.6983058452606201
1772884847946446600,1.822446533203125,-1.0845468044281006,2.148754835128784,1.0277173519134521
1772884847963076600,1.83907666015625,0.45164528489112854,1.4063814878463745,-0.40677985548973083
1772884847979660500,1.85566064453125,2.3641088008880615,0.6089733839035034,-2.1744775772094727
1772884847996280000,1.872280029296875,4.831707000732422,-0.03409772366285324,-2.8145575523376465
1772884848012878800,1.88887890625,5.955137252807617,-0.0933200865983963,-1.6977076530456543
1772884848029496800,1.905496826171875,4.792823791503906,0.005383851006627083,-0.6185446381568909
1772884848046100700,1.922100830078125,2.7810580730438232,0.02273181453347206,-0.1339980661869049
1772884848062709200,1.938709228515625,1.9692929983139038,-0.14356936514377594,0.3475574851036072
1772884848079321300,1.9553212890625,2.4460630416870117,-0.3008974492549896,0.35832518339157104
1772884848095910700,1.97191064453125,2.8899314403533936,-0.6370890140533447,-0.053240302950143814
1772884848112528600,1.988528564453125,3.0137600898742676,-0.8380861282348633,0.05922235921025276
1772884848129127400,2.00512744140625,2.6560330390930176,-0.6137589812278748,0.8333004713058472
1772884848145741800,2.021741943359375,1.8616160154342651,-0.5096712112426758,1.1443674564361572
1772884848162348500,2.0383486328125,1.552941918373108,-0.5665007829666138,0.6484549641609192
1772884848178958600,2.05495849609375,1.5625132322311401,-0.4588237404823303,0.9074779748916626
1772884848195557400,2.071557373046875,1.8490537405014038,-0.08434699475765228,1.1718848943710327
1772884848212153300,2.0881533203125,1.7533408403396606,0.04187439754605293,0.8380861282348633
1772884848228764700,2.1047646484375,1.2765709161758423,0.0077766734175384045,0.23330020904541016
1772884848245370400,2.121370361328125,1.1365907192230225,0.7591229677200317,0.08673982322216034
1772884848261983200,2.137983154296875,3.559323787689209,2.115255117416382,1.311864972114563
1772884848278572800,2.15457275390625,7.144370079040527,3.032902717590332,2.6799614429473877
1772884848295194000,2.171194091796875,12.577274322509766,3.741776466369629,3.0376882553100586
1772884848311796200,2.187796142578125,17.154146194458008,4.238286972045898,0.3188436031341553
1772884848328417500,2.20441748046875,20.076379776000977,6.513861656188965,-2.129014015197754
1772884848345015300,2.221015380859375,17.651853561401367,11.495718002319336,-3.477369546890259
1772884848361623600,2.23762353515625,11.995220184326172,18.73221206665039,-5.457430362701416
1772884848378242800,2.254242919921875,7.654041290283203,21.801605224609375,-4.28734016418457
1772884848394849300,2.270849365234375,10.465607643127441,18.003000259399414,0.8578268885612488
1772884848411435800,2.287435791015625,12.837493896484375,13.286148071289062,2.410170555114746
1772884848428066800,2.30406689453125,18.966110229492188,7.5708909034729,2.7421748638153076
1772884848444669400,2.32066943359375,20.52922248840332,3.534797191619873,2.9599215984344482
1772884848461280000,2.337280029296875,18.658035278320312,4.047459602355957,4.700101852416992
1772884848477882600,2.353882568359375,20.44367790222168,3.0484559535980225,4.3549370765686035
1772884848494487000,2.370487060546875,23.152952194213867,0.6370890140533447,1.1012966632843018
1772884848511082800,2.387082763671875,20.533409118652344,-0.17288143932819366,-0.9487541913986206
1772884848527709400,2.40370947265625,14.489139556884766,0.8135597109794617,-0.388235479593277
1772884848544306700,2.420306640625,9.027522087097168,1.6175481081008911,0.8063812255859375
1772884848560915500,2.43691552734375,5.334199905395508,2.4598217010498047,1.588834285736084
1772884848577534500,2.453534423828125,3.7848472595214844,3.1746773719787598,1.2556337118148804
1772884848594129200,2.470129150390625,3.6735808849334717,3.417548894882202,0.24526432156562805
1772884848610744300,2.486744384765625,3.631706476211548,3.1094729900360107,-0.778863787651062
1772884848627349500,2.503349609375,3.851846218109131,2.730210542678833,-1.0474581718444824
1772884848643952400,2.519952392578125,3.972085475921631,2.7188446521759033,-0.8943174481391907
1772884848660560100,2.53656005859375,3.720839262008667,2.6949164867401123,-0.9415757060050964
1772884848677171700,2.553171630859375,3.070589542388916,2.6973092555999756,-0.8159525394439697
1772884848693771800,2.569771728515625,2.7463622093200684,2.775674343109131,-0.8231309652328491
1772884848710382300,2.58638232421875,2.279761791229248,2.857030153274536,-0.8727820515632629
1772884848726973200,2.60297314453125,1.425524115562439,2.9898319244384766,-0.4043870270252228
1772884848743583200,2.619583251953125,1.5750755071640015,3.1244282722473145,0.4911268353462219
1772884848760190000,2.63618994140625,3.1752755641937256,3.119044303894043,1.568495273590088
1772884848776796400,2.65279638671875,4.040879249572754,3.527618885040283,2.3814568519592285
1772884848793407000,2.669406982421875,4.6372904777526855,3.813561201095581,2.6392834186553955
1772884848810011100,2.68601123046875,6.111268997192383,3.9906299114227295,2.958127021789551
1772884848826633000,2.702633056640625,9.616155624389648,4.170690059661865,2.404188632965088
1772884848843230500,2.71923046875,12.068201065063477,4.213760852813721,1.4416756629943848
1772884848859851800,2.735851806640625,14.960525512695312,3.510869026184082,-0.6496513485908508
1772884848876439800,2.752439697265625,17.875581741333008,3.3026933670043945,-0.8063812255859375
1772884848893074700,2.76907470703125,20.099111557006836,6.370890140533447,0.07477571070194244
1772884848909649200,2.785649169921875,20.784656524658203,9.574281692504883,1.0995019674301147
1772884848926274300,2.8022744140625,18.515064239501953,8.537590980529785,-0.9098708033561707
1772884848942876400,2.81887646484375,15.586248397827148,7.207779884338379,-2.400599241256714
1772884848959491800,2.835491943359375,10.573285102844238,6.367899417877197,-1.3668999671936035
1772884848976093700,2.85209375,6.094519138336182,6.438487529754639,-0.4468596279621124
1772884848992685600,2.868685546875,4.456632137298584,4.216751575469971,-0.17108681797981262
1772884849009305900,2.885305908203125,4.135993957519531,1.9465612173080444,1.181456208229065
1772884849025917400,2.90191748046875,6.805187702178955,1.5409778356552124,3.552743434906006
1772884849042520300,2.918520263671875,11.757134437561035,1.573280930519104,4.167100429534912
1772884849059125800,2.935125732421875,14.70210075378418,0.5138586759567261,3.483949661254883
1772884849075739600,2.95173974609375,14.350954055786133,0.4540380835533142,1.8963119983673096
1772884849092342800,2.9683427734375,9.439684867858887,1.8508483171463013,-0.7794619798660278
1772884849108946400,2.984946533203125,4.35254430770874,2.1092731952667236,-1.2376874685287476
1772884849125560000,3.00156005859375,2.6985056400299072,2.9766714572906494,-0.9559326171875
1772884849142163500,3.01816357421875,2.245664119720459,3.07417893409729,0.17647066712379456
1772884849158763800,3.034763671875,2.204986095428467,3.060420274734497,0.9876375198364258
1772884849175385600,3.051385498046875,2.338385820388794,3.4031920433044434,0.7268198728561401
1772884849191984600,3.067984619140625,2.5076780319213867,3.4953157901763916,0.6293123364448547
1772884849208590000,3.084590087890625,2.4915266036987305,3.637688636779785,1.1210373640060425
1772884849225185300,3.101185302734375,3.417548894882202,4.43330192565918,1.6875381469726562
1772884849241791700,3.117791748046875,5.3007001876831055,5.526822090148926,2.231905221939087
1772884849258403600,3.134403564453125,8.933603286743164,6.58265495300293,2.5764718055725098
1772884849274988500,3.150988525390625,14.33181095123291,6.7316083908081055,2.02492618560791
1772884849291609600,3.167609619140625,19.128223419189453,4.643272399902344,1.2813565731048584
1772884849308219100,3.18421923828125,19.914865493774414,4.1760735511779785,-0.49232324957847595
1772884849324831500,3.20083154296875,15.459428787231445,5.905486106872559,-2.227717876434326
1772884849341422600,3.217422607421875,9.57607650756836,8.298309326171875,-1.7928223609924316
1772884849358042600,3.234042724609375,8.080561637878418,7.301100254058838,-0.7878368496894836
1772884849374652700,3.250652587890625,10.77547836303711,5.995815277099609,-1.0414760112762451
1772884849391249400,3.26724951171875,12.251850128173828,4.284348964691162,0.26440688967704773
1772884849407878400,3.28387841796875,13.454841613769531,2.89890456199646,0.8632107973098755
1772884849424487700,3.30048779296875,13.226924896240234,0.649053156375885,1.4865410327911377
1772884849441090800,3.3170908203125,10.475777626037598,0.27397820353507996,1.5960127115249634
1772884849457698300,3.3336982421875,7.101299285888672,0.9768698215484619,2.276770830154419
1772884849474305500,3.350305419921875,6.902096748352051,1.7641085386276245,2.575275421142578
1772884849490894600,3.36689453125,9.562317848205566,2.0482561588287354,2.001596212387085
1772884849507519500,3.38351953125,10.049257278442383,1.9465612173080444,1.561316728591919
1772884849524130600,3.400130615234375,8.483154296875,2.4610180854797363,0.9954141974449158
1772884849540733000,3.41673291015625,4.60139799118042,2.7738797664642334,0.4833501875400543
1772884849557340400,3.43334033203125,1.4685949087142944,3.135794162750244,-0.053240302950143814
1772884849573948000,3.449947998046875,0.8608179688453674,3.2404799461364746,-0.30209386348724365
1772884849590549500,3.466549560546875,2.1948165893554688,3.1932218074798584,-0.0687936544418335
1772884849607161300,3.483161376953125,2.4670002460479736,3.699902057647705,0.5407779216766357
1772884849623773200,3.499773193359375,4.120440483093262,4.425525665283203,0.9002995491027832
1772884849640375300,3.516375244140625,5.045864582061768,5.352146148681641,1.0869396924972534
1772884849656982300,3.532982177734375,6.733402729034424,5.9784674644470215,0.9702895879745483
1772884849673588700,3.549588623046875,10.457233428955078,7.052844524383545,1.1054840087890625
1772884849690219300,3.56621923828125,15.865610122680664,6.480959892272949,0.9361918568611145
1772884849706801400,3.582801513671875,21.406789779663086,4.878965377807617,1.2323036193847656
1772884849723415800,3.599415771484375,21.214765548706055,4.586442947387695,-0.6526423692703247
1772884849740017400,3.616017333984375,14.863615989685059,6.966104984283447,-2.6225335597991943
1772884849756621000,3.63262109375,11.936595916748047,9.604789733886719,-2.8803603649139404
1772884849806430500,3.682430419921875,14.4532470703125,5.326423168182373,2.211566209793091
1772884849823037400,3.699037353515625,12.161520957946777,5.769095420837402,3.5671002864837646
1772884849839644400,3.71564453125,12.062817573547363,4.686941146850586,2.9425735473632812
1772884849856251600,3.732251708984375,11.391630172729492,2.9312076568603516,2.02492618560791
1772884849872858600,3.748858642578125,9.146564483642578,2.321038007736206,1.6408780813217163
1772884849889478000,3.765477783203125,6.653841495513916,2.6560330390930176,1.8819550275802612
1772884849906085400,3.78208544921875,3.8626139163970947,2.8211379051208496,1.3776676654815674
1772884849922698000,3.798697998046875,2.8965117931365967,2.4681966304779053,1.1748759746551514
1772884849939300600,3.815300537109375,3.201596736907959,2.528017044067383,1.231107234954834
1772884849955907000,3.831906982421875,3.662813186645508,2.5232315063476562,0.7022934556007385
1772884849972514000,3.84851416015625,4.498506546020508,2.280359983444214,0.48035913705825806
1772884849989119200,3.865119140625,3.4127633571624756,1.7623138427734375,-0.22013968229293823
1772884850005729300,3.881729248046875,1.2275179624557495,1.4859428405761719,-1.4967105388641357
1772884850022336500,3.89833642578125,-0.2709871530532837,1.8335003852844238,-2.121835470199585
1772884850038942500,3.9149423828125,0.12921242415905,2.641676187515259,-1.4817553758621216
1772884850055549000,3.931548828125,1.374078392982483,3.5443685054779053,-0.24825534224510193
1772884850072139500,3.948139404296875,1.7383856773376465,4.9776692390441895,1.109073281288147
1772884850088763600,3.964763671875,3.4277184009552,6.623332977294922,2.259422779083252
1772884850105370000,3.9813701171875,7.180262565612793,6.770491600036621,2.0865414142608643
1772884850121977600,3.9979775390625,12.845868110656738,5.714658737182617,1.176072359085083
1772884850138584600,4.01458447265625,18.17707633972168,4.911866664886475,0.48514479398727417
1772884850155191300,4.03119140625,18.92363739013672,5.281557559967041,-2.1756739616394043
1772884850171798500,4.047798583984375,13.701302528381348,8.598608016967773,-4.555934429168701
1772884850188407000,4.064406982421875,9.54496955871582,13.570295333862305,-5.323431968688965
1772884850205012700,4.0810126953125,6.770491600036621,12.491132736206055,-4.603192329406738
1772884850221617700,4.09761767578125,14.891133308410645,9.163912773132324,-2.435295343399048
1772884850238226700,4.114226806640625,19.2933292388916,7.411767959594727,0.544965386390686
1772884850254833200,4.130833251953125,19.737197875976562,5.911468505859375,2.640479803085327
1772884850271423500,4.147423583984375,19.222143173217773,3.662214994430542,3.7124643325805664
1772884850288030500,4.164030517578125,14.745769500732422,3.232703447341919,2.9216363430023193
1772884850304640500,4.180640625,8.162516593933105,2.599801778793335,1.973480463027954
1772884850321251000,4.1972509765625,4.335196495056152,1.9627127647399902,1.6701902151107788
1772884850337854700,4.213854736328125,3.6574294567108154,1.7186448574066162,1.9399809837341309
1772884850354462000,4.2304619140625,4.552943229675293,2.224726915359497,2.0679969787597656
1772884850371068400,4.247068359375,3.8285162448883057,2.6709883213043213,1.5726827383041382
1772884850387672800,4.2636728515625,2.4197418689727783,2.940778970718384,0.6502495408058167
1772884850404299000,4.280299072265625,2.021935224533081,3.1178479194641113,-0.43190449476242065
1772884850420907800,4.29690771484375,1.3657035827636719,2.5591237545013428,-1.4608181715011597
1772884850437511000,4.313510986328125,0.511465847492218,2.2995026111602783,-1.8831514120101929
1772884850454117600,4.33011767578125,0.33020952343940735,2.2917258739471436,-1.72941255569458
1772884850470724400,4.346724365234375,0.32303106784820557,2.293520450592041,-1.3704891204833984
1772884850487310600,4.363310546875,-0.19381862878799438,2.4424736499786377,-0.9505487680435181
1772884850503938600,4.3799384765625,1.3094722032546997,2.6213371753692627,-0.34995031356811523
1772884850520550000,4.3965498046875,1.217348575592041,3.872185230255127,1.6301103830337524
1772884850537152500,4.413152587890625,3.9044883251190186,5.167300701141357,3.637688636779785
1772884850553759500,4.429759521484375,10.49970531463623,5.280361175537109,4.945366382598877
1772884850570367000,4.446366943359375,19.32503318786621,2.7565317153930664,5.178666591644287
1772884850586969600,4.462969482421875,23.672792434692383,2.2205393314361572,3.3373894691467285
1772884850603580400,4.479580322265625,17.004594802856445,6.041877269744873,0.031106693670153618
1772884850620191500,4.49619140625,7.1162543296813965,11.755937576293945,-1.3920245170593262
1772884850636794400,4.51279443359375,2.091326951980591,12.197413444519043,0.5623133182525635
1772884850653401600,4.529401611328125,4.563711166381836,10.929217338562012,0.3529413342475891
1772884850670008800,4.5460087890625,15.088541030883789,6.994818687438965,0.3074777126312256
1772884850686610400,4.5626103515625,25.415964126586914,1.1569297313690186,1.129412293434143
1772884850703223000,4.57922314453125,26.248666763305664,0.03529413416981697,0.0975075215101242
1772884850719832000,4.59583203125,15.567704200744629,1.7904295921325684,0.6873382925987244
1772884850736436200,4.612436279296875,7.825726509094238,2.070389747619629,3.0382864475250244
1772884850753043500,4.62904345703125,5.073980331420898,4.17009162902832,2.5046870708465576
1772884850769633500,4.645633544921875,13.693525314331055,3.528815269470215,1.6193426847457886
1772884850786245400,4.662245361328125,16.49073600769043,1.8652052879333496,1.557727575302124
1772884850802851000,4.67885107421875,14.648262023925781,2.6075785160064697,0.8033902049064636
1772884850819456000,4.6954560546875,9.138788223266602,3.6705899238586426,-0.08554340898990631
1772884850836064800,4.712064697265625,3.2159535884857178,4.1006999015808105,-0.8428717851638794
1772884850852671500,4.72867138671875,0.10707881301641464,4.221537113189697,-1.0492527484893799
1772884850869278700,4.74527880859375,0.3601198196411133,4.949553489685059,-1.9728822708129883
1772884850885902600,4.761902587890625,1.6372889280319214,4.689932346343994,-1.29810631275177
1772884850902500400,4.778500244140625,3.1148569583892822,4.964509010314941,-0.6825526356697083
1772884850919119400,4.795119384765625,3.4845480918884277,5.204987525939941,0.25423741340637207
1772884850935721000,4.811720947265625,4.42612361907959,5.637490272521973,1.280758261680603
1772884850952327200,4.8283271484375,5.574080467224121,6.226722717285156,1.5128620862960815
1772884850968934400,4.844934326171875,7.7461652755737305,6.303293228149414,0.8745766878128052
1772884850985543200,4.861543212890625,11.750554084777832,5.5998029708862305,0.9092726111412048
1772884851002152400,4.87815234375,16.231712341308594,4.418346881866455,1.506281852722168
1772884851018758000,4.8947578125,19.826330184936523,3.6843485832214355,1.7772690057754517
1772884851035362800,4.91136279296875,19.918453216552734,3.527618885040283,0.05383851006627083
1772884851051969300,4.92796923828125,15.366706848144531,4.749752998352051,-0.9924231767654419
1772884851068576500,4.944576416015625,8.819944381713867,8.629714965820312,-0.16151553392410278
1772884851085184000,4.96118408203125,4.527220249176025,11.675179481506348,-0.1818545162677765
1772884851101790200,4.977790283203125,7.491927623748779,11.120044708251953,-2.12542462348938
1772884851118397700,4.994397705078125,14.559727668762207,6.351149559020996,-1.2538390159606934
1772884851135019800,5.011019775390625,19.55354881286621,1.9405791759490967,1.1198409795761108
1772884851151608600,5.027608642578125,17.38445472717285,1.241276741027832,1.7778671979904175
1772884851168221200,5.04422119140625,11.867203712463379,1.852044701576233,2.9036903381347656
1772884851184822500,5.060822509765625,7.75334358215332,2.7601208686828613,3.4791641235351562
1772884851201432300,5.077432373046875,9.16869831085205,2.626721143722534,2.958127021789551
1772884851218039600,5.09403955078125,10.673783302307129,1.5290136337280273,1.6313068866729736
1772884851234646300,5.110646240234375,8.552546501159668,1.7874385118484497,-0.019142581149935722
1772884851251253000,5.1272529296875,5.667400360107422,2.480160713195801,-0.1944168359041214
1772884851267843300,5.14384326171875,3.9361932277679443,3.0514471530914307,0.867398202419281
1772884851284453400,5.160453369140625,2.609373092651367,3.3098719120025635,1.4075778722763062
1772884851301060600,5.177060546875,1.8592232465744019,2.822932481765747,0.8919246196746826
1772884851317667800,5.193667724609375,1.4482558965682983,2.4047868251800537,0.5467599630355835
1772884851334274800,5.21027490234375,1.3926228284835815,2.53399920463562,0.4378865361213684
1772884851350881500,5.226881591796875,1.7413766384124756,2.5764718055725098,0.43130627274513245
1772884851367488800,5.24348876953125,1.8921245336532593,2.7349963188171387,0.5276173949241638
1772884851384117500,5.260117431640625,1.893320918083191,3.1232316493988037,0.44386860728263855
1772884851400716300,5.27671630859375,1.7102699279785156,3.635295867919922,0.2147558331489563
1772884851417319200,5.293319091796875,2.146361827850342,4.225724697113037,0.5653043389320374
1772884851433931000,5.309930908203125,4.249054908752441,5.526223659515381,1.7778671979904175
1772884851450537200,5.326537109375,7.70967435836792,6.44387149810791,2.3874387741088867
1772884851467144400,5.34314453125,12.722040176391602,6.888936519622803,2.544168710708618
1772884851483735300,5.3597353515625,15.870994567871094,7.084549427032471,0.9445667266845703
1772884851500358100,5.376358154296875,15.428321838378906,7.668398380279541,-1.4350954294204712
1772884851516970000,5.392969970703125,12.832707405090332,9.142974853515625,-2.595614433288574
1772884851533572000,5.409572021484375,9.979865074157715,10.75992488861084,-1.0085747241973877
1772884851550179000,5.426178955078125,7.383652687072754,11.404192924499512,0.4265206456184387
1772884851566786600,5.44278662109375,5.140979290008545,12.233903884887695,0.14416755735874176
1772884851583390000,5.459389892578125,3.772284984588623,11.005189895629883,-1.2346965074539185
1772884851599983900,5.47598388671875,5.367101192474365,10.322636604309082,-2.239083766937256
1772884851616611300,5.492611328125,11.6183500289917,7.841279983520508,-1.8478572368621826
1772884851633214700,5.509214599609375,17.775680541992188,4.7024946212768555,2.149951219558716
1772884851649821400,5.525821533203125,20.121843338012695,4.264009952545166,3.2721848487854004
1772884851666428400,5.542428466796875,17.75952911376953,2.4945175647735596,3.5497524738311768
1772884851683031000,5.559031005859375,12.077174186706543,3.173480987548828,0.7459624409675598
1772884851699642600,5.575642578125,7.671389579772949,3.9834516048431396,-1.1461620330810547
1772884851716254000,5.59225390625,5.033900737762451,4.346562385559082,-0.99481600522995
1772884851732835800,5.6088359375,2.7517459392547607,4.189234256744385,-0.6143572330474854
1772884851749460000,5.6254599609375,1.2047861814498901,3.840480327606201,-0.37866419553756714
1772884851766057000,5.642056884765625,0.844068169593811,3.283550977706909,-0.0364905446767807
1772884851782663400,5.658663330078125,1.9543378353118896,2.8869404792785645,0.2315055876970291
1772884851799268600,5.6752685546875,4.077369689941406,2.946761131286621,0.9373882412910461
1772884851815880000,5.6918798828125,4.25084924697876,2.779263496398926,0.6197410821914673
1772884851832484600,5.708484619140625,2.352144718170166,2.806781053543091,-0.6083751320838928
1772884851849091600,5.725091552734375,0.4941178858280182,2.9491539001464844,-1.189831018447876
1772884851865715500,5.741715576171875,-0.09571290761232376,3.0005996227264404,-1.2197413444519043
1772884851882315500,5.7583154296875,1.0630114078521729,3.3684961795806885,-0.7878368496894836
1772884851898926300,5.77492626953125,3.885345697402954,4.23948335647583,-0.5204389095306396
1772884851915537700,5.79153759765625,8.309675216674805,5.216951370239258,0.47617170214653015
1772884851932140500,5.808140625,13.446466445922852,6.696314334869385,0.7495517134666443
1772884851948747300,5.824747314453125,16.306488037109375,7.503891944885254,-0.030508488416671753
1772884851965354200,5.841354248046875,16.11326789855957,8.401798248291016,-0.6777670383453369
1772884851981958400,5.85795849609375,14.233107566833496,9.887741088867188,0.037088751792907715
1772884851998569500,5.874569580078125,10.705488204956055,10.833504676818848,-0.2709871530532837
1772884852015177000,5.891177001953125,8.895915985107422,11.141580581665039,-1.7700905799865723
1772884852031782000,5.907781982421875,8.201399803161621,10.076774597167969,-1.2287144660949707
1772884852048389400,5.924389404296875,7.234101295471191,10.028319358825684,-0.02273181453347206
1772884852064996600,5.94099658203125,8.924630165100098,9.92423152923584,2.0380866527557373
1772884852081581000,5.9575810546875,10.822736740112305,8.174480438232422,2.641077995300293
1772884852098211000,5.974211181640625,12.43131160736084,6.095715522766113,2.630908489227295
1772884852114821600,5.990821533203125,13.919049263000488,4.079164505004883,2.516651153564453
1772884852131423700,6.007423828125,13.50748348236084,2.746960401535034,1.5858432054519653
1772884852148033300,6.024033203125,10.422536849975586,1.8921245336532593,0.7986045479774475
1772884852164636400,6.040636474609375,6.057430744171143,1.8765711784362793,-0.1579262912273407
1772884852181256700,6.057256591796875,3.0592236518859863,2.1918256282806396,-1.0947163105010986
1772884852197852700,6.073852783203125,2.073979139328003,2.1583259105682373,-1.8550357818603516
1772884852214457900,6.090457763671875,2.292922258377075,2.3270199298858643,-2.2947168350219727
1772884852231065900,6.10706591796875,3.363710403442383,2.5639095306396484,-1.7682958841323853
1772884852247656200,6.12365625,4.515854358673096,2.6697919368743896,-0.875174880027771
1772884852264266200,6.140266357421875,5.030311584472656,2.8079774379730225,-0.12083754688501358
1772884852280874800,6.156874755859375,4.64805793762207,2.9006991386413574,0.3026920557022095
1772884852297479000,6.17347900390625,4.137788772583008,2.888735055923462,0.5395814776420593
1772884852314087700,6.190087646484375,4.3752760887146,3.0520453453063965,0.7214360237121582
1772884852330690600,6.206690673828125,5.119443893432617,3.4576287269592285,0.7441678643226624
1772884852347305000,6.223304931640625,6.810571670532227,4.037290096282959,0.5617151260375977
1772884852363925800,6.23992578125,9.543174743652344,4.5583271980285645,0.698704183101654
1772884852380529400,6.256529296875,12.768101692199707,6.374479293823242,0.014356935396790504
1772884852397136100,6.27313623046875,14.049458503723145,8.033902168273926,-0.49710890650749207
1772884852413743000,6.2897431640625,13.776078224182129,9.890732765197754,-0.3332005441188812
1772884852430349800,6.306349853515625,12.40259838104248,11.044073104858398,0.7734799385070801
1772884852446957000,6.32295703125,9.394221305847168,11.377273559570312,0.5150550603866577
1772884852463546600,6.339546630859375,7.0301127433776855,11.947961807250977,-1.5810575485229492
1772884852480155100,6.356155029296875,4.826921463012695,10.680961608886719,-4.0935211181640625
1772884852496760300,6.37276025390625,5.413163185119629,8.994620323181152,-4.238885402679443
1772884852513372200,6.3893720703125,10.916056632995605,7.668996810913086,-2.1655044555664062
1772884852529978000,6.40597802734375,16.92323875427246,5.076971530914307,0.8805587291717529
1772884852546585000,6.422585205078125,17.657835006713867,2.7314071655273438,2.5286152362823486
1772884852563192300,6.4391923828125,12.841680526733398,2.3258235454559326,2.45204496383667
1772884852579799000,6.455799072265625,7.53140926361084,2.748156785964966,1.6959130764007568
1772884852596406300,6.47240625,5.5621161460876465,2.8486554622650146,0.8901300430297852
1772884852613030400,6.489030517578125,6.739983081817627,2.7535407543182373,-0.006580262444913387
1772884852629633800,6.5056337890625,7.449455261230469,2.310270309448242,-0.41575294733047485
1772884852646240500,6.522240478515625,6.472585201263428,2.004587173461914,-0.6616154313087463
1772884852662848000,6.538847900390625,4.305285930633545,2.283350944519043,-1.292722463607788
1772884852679454700,6.555454833984375,2.9688947200775146,2.5704896450042725,-1.3645070791244507
1772884852696062000,6.57206201171875,2.286940336227417,2.8564319610595703,-0.8847461938858032
1772884852712669000,6.5886689453125,1.92741858959198,3.022135019302368,-0.5611169338226318
1772884852729276200,6.605276123046875,1.649253010749817,2.84087872505188,-0.4127618968486786
1772884852745865500,6.621865478515625,1.2813565731048584,3.211766242980957,-0.02512463741004467
1772884852762476000,6.63847607421875,1.7784653902053833,3.737588882446289,0.6693921089172363
1772884852779083000,6.6550830078125,2.6368906497955322,4.11924409866333,1.394417405128479
1772884852795689700,6.671689697265625,5.937789440155029,4.977071285247803,1.506281852722168
1772884852812297000,6.688296875,10.822138786315918,5.602794170379639,1.674975872039795
1772884852828904000,6.704904052734375,14.33181095123291,6.912266254425049,0.7034898400306702
1772884852845528000,6.721528076171875,15.577275276184082,8.38684368133545,-0.727418065071106
1772884852862131500,6.73813134765625,13.278968811035156,9.464810371398926,-1.5439687967300415
1772884852878738400,6.754738525390625,10.211370468139648,10.770692825317383,-1.454836130142212
1772884852895346000,6.771345947265625,7.238886833190918,11.359925270080566,-1.3471591472625732
1772884852911952600,6.78795263671875,6.601797580718994,11.316256523132324,-1.5547364950180054
1772884852928547600,6.804547607421875,7.57507848739624,10.149157524108887,-0.9469595551490784
1772884852945166600,6.82116650390625,10.334601402282715,10.220343589782715,0.47258245944976807
1772884852961766000,6.837765869140625,14.695520401000977,8.889934539794922,2.782254457473755
1772884852978380300,6.85438037109375,17.245670318603516,7.493722438812256,3.0586254596710205
1772884852994987800,6.87098779296875,15.916458129882812,5.850451469421387,2.0925233364105225
1772884853011594500,6.887594482421875,12.18365478515625,4.611567497253418,0.6221339106559753
1772884853028201700,6.90420166015625,8.060821533203125,4.023531436920166,-0.7794619798660278
1772884853044819500,6.9208193359375,5.830112457275391,3.7950167655944824,-1.5481562614440918
1772884853061415400,6.93741552734375,5.752943992614746,3.535395383834839,-0.9373882412910461
1772884853078022100,6.954022216796875,6.451648235321045,3.6951162815093994,0.3367897868156433
1772884853094613000,6.970613037109375,7.140182971954346,3.579662561416626,1.3268201351165771
1772884853111236600,6.987236572265625,7.354340553283691,2.9718856811523438,1.6319050788879395
1772884853127843600,7.003843505859375,5.709873199462891,2.555534601211548,0.6430711150169373
1772884853144450300,7.0204501953125,3.9278182983398438,2.7224340438842773,0.06640082597732544
1772884853161057500,7.0370576171875,2.4029922485351562,3.0251259803771973,-0.2913261651992798
1772884853177664300,7.053664306640625,1.9417755603790283,3.064009428024292,-0.40797626972198486
1772884853194271500,7.070271484375,2.128415822982788,3.1316065788269043,-0.19800607860088348
1772884853210878500,7.08687841796875,3.0514471530914307,3.277568817138672,0.1423729509115219
1772884853227485400,7.1034853515625,4.870590686798096,3.638286828994751,0.5605186820030212
1772884853244075000,7.120074951171875,7.130611419677734,4.17726993560791,0.833898663520813
1772884853260685600,7.136685546875,9.984650611877441,5.2151570320129395,0.5670989751815796
1772884853277292500,7.15329248046875,11.730215072631836,6.409773826599121,0.16450655460357666
1772884853293899500,7.1698994140625,11.768500328063965,7.679764270782471,-0.582054078578949
1772884853310506500,7.186506591796875,10.837692260742188,8.395217895507812,-0.3613162338733673
1772884853327113500,7.203113525390625,9.817750930786133,9.013164520263672,-0.0975075215101242
1772884853343737900,7.21973779296875,9.392427444458008,9.18724250793457,-0.2757728099822998
1772884853360341000,7.236341064453125,9.399007797241211,9.407382011413574,-0.8099704384803772
1772884853376947700,7.25294775390625,8.681160926818848,9.908080101013184,-1.5912270545959473
1772884853393557000,7.269556884765625,7.058228492736816,10.741978645324707,-1.5182459354400635
1772884853410160400,7.286160400390625,6.719644069671631,10.928021430969238,-0.7304090857505798
1772884853426769200,7.30276904296875,9.10110092163086,10.264012336730957,-0.03170489892363548
1772884853443373300,7.319373291015625,11.986247062683105,9.368498802185059,0.3188436031341553
1772884853459986000,7.33598583984375,12.65444278717041,7.743174076080322,0.45583271980285645
1772884853476590000,7.352590087890625,10.847861289978027,6.247061729431152,0.17288143932819366
1772884853493197600,7.369197509765625,8.017151832580566,5.102694511413574,0.04666004329919815
1772884853509804500,7.385804443359375,5.474180221557617,4.213162422180176,0.08793623000383377
1772884853526413600,7.40241357421875,5.014758110046387,3.6029927730560303,-0.22492532432079315
1772884853543018000,7.41901806640625,5.4765729904174805,2.764308452606201,-0.0568295381963253
1772884853559625000,7.435625,5.318646430969238,2.2648067474365234,-0.0023928226437419653
1772884853576232000,7.45223193359375,4.928018093109131,2.197209358215332,0.09511470049619675
1772884853592839200,7.468839111328125,4.161118507385254,2.368894338607788,0.3206382393836975
1772884853609445600,7.485445556640625,3.297907829284668,2.5393829345703125,0.5611169338226318
1772884853626053400,7.502053466796875,3.0209386348724365,2.6913273334503174,0.3487538993358612
1772884853642659600,7.51865966796875,3.111267566680908,2.8342983722686768,-0.038285162299871445
1772884853659266600,7.5352666015625,2.8354947566986084,3.200998544692993,-0.17288143932819366
1772884853675873800,7.551873779296875,2.8875386714935303,4.37228536605835,-0.5706881880760193
1772884853692481000,7.56848095703125,4.266402721405029,5.411368370056152,-1.1306086778640747
1772884853709087500,7.58508740234375,6.80877685546875,6.577869415283203,-1.1886346340179443
1772884853725677800,7.601677734375,8.974281311035156,8.213961601257324,-1.1413763761520386
1772884853742288000,7.618287841796875,9.954142570495605,9.648459434509277,-0.8685946464538574
1772884853758894800,7.634894775390625,9.872786521911621,10.243673324584961,-0.6197410821914673
1772884853775502000,7.651502197265625,9.643074989318848,9.996016502380371,-0.5389832854270935
1772884853792108800,7.66810888671875,9.546764373779297,9.705288887023926,-0.7986045479774475
1772884853808715800,7.6847158203125,9.236893653869629,10.40638542175293,-1.4662020206451416
1772884853825323000,7.701322998046875,8.492725372314453,11.082956314086914,-2.1026928424835205
1772884853841947400,7.717947509765625,9.565906524658203,11.115857124328613,-1.811964988708496
1772884853858550300,7.73455029296875,11.882757186889648,10.89392375946045,-0.8560323119163513
1772884853875157200,7.7511572265625,13.667802810668945,9.33739185333252,0.5096712112426758
1772884853891760000,7.767760009765625,13.72343635559082,7.356733322143555,1.083350419998169
1772884853908375600,7.78437548828125,10.800602912902832,6.174678802490234,0.7417750358581543
1772884853924978700,7.800978759765625,7.056434154510498,5.5830535888671875,0.882951557636261
1772884853941586000,7.8175859375,4.274179458618164,5.0703911781311035,1.334596872329712
1772884853958178300,7.83417822265625,2.8049862384796143,4.396811485290527,1.5864413976669312
1772884853974798800,7.850798828125,2.2438695430755615,3.6269209384918213,1.350150227546692
1772884853991406800,7.86740673828125,2.1547367572784424,3.236292600631714,0.4863412082195282
1772884854008013000,7.884012939453125,2.870789051055908,3.2614171504974365,-0.5024927258491516
1772884854024620500,7.90062060546875,4.683950424194336,2.6195425987243652,-0.9529415965080261
1772884854041227500,7.9172275390625,5.636293888092041,1.9154545068740845,-0.776470959186554
1772884854057834000,7.933833984375,4.927420139312744,2.129014015197754,-0.9385846853256226
1772884854074441200,7.950441162109375,3.142374277114868,2.51425838470459,-0.6197410821914673
1772884854091048000,7.9670478515625,1.9411773681640625,3.0592236518859863,0.17108681797981262
1772884854107655700,7.98365576171875,2.049452543258667,3.5922250747680664,0.7387840151786804
1772884854124262000,8.000261962890624,3.1453654766082764,4.0217366218566895,0.5587241053581238
1772884854140852500,8.0168525390625,5.447858810424805,4.463810443878174,0.46779683232307434
1772884854157476400,8.033476318359375,9.334999084472656,5.851049423217773,0.34576287865638733
1772884854174083000,8.0500830078125,13.231112480163574,7.357331275939941,-0.2386840581893921
1772884854190689800,8.066689697265625,14.739787101745605,8.72782039642334,-1.9399809837341309
1772884854207297500,8.083297607421875,12.821940422058105,8.073383331298828,-2.292922258377075
1772884854223887000,8.09988720703125,9.671191215515137,8.368298530578613,-0.9481559991836548
1772884854240497200,8.1164970703125,8.743971824645996,7.933403491973877,0.10169496387243271
1772884854257104100,8.133104248046875,10.735997200012207,6.0987067222595215,2.372483730316162
1772884854273711400,8.14971142578125,12.835101127624512,3.683152198791504,3.2368907928466797
1772884854290318000,8.166318115234375,15.748960494995117,3.3655049800872803,1.4919248819351196
1772884854306925300,8.18292529296875,17.635700225830078,3.211766242980957,0.5234299302101135
1772884854323535600,8.19953564453125,16.959728240966797,3.125624656677246,0.8135597109794617
1772884854340153300,8.2161533203125,13.971691131591797,3.061018466949463,1.8197416067123413
1772884854356742700,8.23274267578125,10.577472686767578,2.974876642227173,2.0344974994659424
1772884854373366500,8.249366455078125,7.542177200317383,2.8791637420654297,1.5152549743652344
1772884854389973800,8.265973876953124,5.414957523345947,2.9359934329986572,0.5712863802909851
1772884854406580500,8.28258056640625,4.112663745880127,3.1405797004699707,-0.47676992416381836
1772884854423188000,8.29918798828125,4.008575916290283,3.036491870880127,-1.3381860256195068
1772884854439795200,8.315795166015626,4.464408874511719,2.8528428077697754,-1.6480566263198853
1772884854456401400,8.3324013671875,5.412564754486084,2.743969440460205,-1.1569297313690186
1772884854473008400,8.34900830078125,6.08195686340332,2.585444927215576,-0.17647066712379456
1772884854489615600,8.36561572265625,6.491129398345947,2.6943182945251465,0.5252245664596558
1772884854506222800,8.382222900390625,6.27577543258667,2.8181469440460205,0.8476574420928955
1772884854522819300,8.3988193359375,5.993422508239746,3.035893678665161,0.778863787651062
1772884854539436800,8.415436767578125,6.977470874786377,3.466601848602295,0.3128615617752075
1772884854556043300,8.432043212890624,9.34875774383545,3.617349624633789,-0.3068794906139374
1772884854572634000,8.448634033203126,11.240283966064453,3.8111681938171387,-1.0432707071304321
1772884854589257500,8.465257568359375,11.829517364501953,4.559523582458496,-1.6911274194717407
1772884854605860600,8.481860595703125,11.539386749267578,6.368497371673584,-2.0685951709747314
1772884854622475300,8.498475341796874,11.099705696105957,7.664210796356201,-1.932204246520996
1772884854639079200,8.5150791015625,11.073983192443848,8.622536659240723,-1.5565310716629028
1772884854655684400,8.531684326171876,10.922039031982422,8.81814956665039,-2.2815563678741455
1772884854672298800,8.548298828125,10.764710426330566,7.915457248687744,-2.6697919368743896
1772884854688899300,8.5648994140625,10.113862991333008,8.042875289916992,-1.5361921787261963
1772884854705489400,8.581489501953126,10.388439178466797,8.783453941345215,0.12263216078281403
1772884854722099700,8.598099609375,11.578868865966797,7.716254711151123,0.519242525100708
1772884854738693000,8.614693115234376,12.353545188903809,5.8851470947265625,-0.40737804770469666
1772884854755313400,8.6313134765625,12.557533264160156,4.009174346923828,-2.469393014907837
1772884854771920600,8.647920654296875,11.702098846435547,2.235494613647461,-3.793222188949585
1772884854788527000,8.664527099609375,10.39501953125,1.7886348962783813,-3.0000014305114746
1772884854805134300,8.68113427734375,8.236693382263184,1.9746768474578857,-1.0348957777023315
1772884854821758200,8.69775830078125,6.994818687438965,2.902493953704834,2.0207388401031494
1772884854838362400,8.7143623046875,6.108277797698975,3.2410783767700195,2.788834810256958
1772884854854968800,8.73096875,5.018945693969727,3.1214370727539062,1.9669002294540405
1772884854871575600,8.747575439453126,4.347160339355469,2.9210381507873535,0.36191442608833313
1772884854888183300,8.764183349609375,4.814957141876221,2.7690939903259277,-0.9379864931106567
1772884854904789800,8.780789794921875,5.793023586273193,1.7132610082626343,-1.5822539329528809
1772884854921396700,8.797396728515626,5.12602424621582,1.40279221534729,-1.968694806098938
1772884854938004000,8.81400390625,4.0803608894348145,2.181057929992676,-0.8039883971214294
1772884854954610400,8.8306103515625,3.3541390895843506,2.5746772289276123,0.48454657196998596
1772884854971217400,8.847217529296875,3.22552490234375,2.8677978515625,0.7172485589981079
1772884854987824400,8.863824462890625,4.035495281219482,3.4719855785369873,0.46360939741134644
1772884855004432400,8.880432373046874,6.6215386390686035,3.7567315101623535,0.06340979784727097
1772884855021038300,8.897038330078125,9.646066665649414,3.737588882446289,-0.6041877269744873
1772884855037645300,8.913645263671874,12.538989067077637,4.076173305511475,-0.7280163168907166
1772884855054252500,8.93025244140625,13.144970893859863,4.5308098793029785,-1.1300104856491089
1772884855070842600,8.946842529296875,11.981461524963379,5.477769374847412,-1.3986048698425293
1772884855087466200,8.96346630859375,9.674779891967773,5.578866004943848,-0.45224347710609436
1772884855104074000,8.980073974609375,9.20159912109375,6.431309223175049,0.6185446381568909
1772884855120680200,8.99668017578125,10.13300609588623,6.175277233123779,0.39182472229003906
1772884855137293600,9.01329345703125,11.024930000305176,6.259624004364014,-0.5790630578994751
1772884855153888000,9.029887939453126,12.298510551452637,7.170093059539795,-0.7704889178276062
1772884855170488000,9.046488037109375,13.054641723632812,6.7657060623168945,-1.2083754539489746
1772884855187108000,9.063108154296875,13.954343795776367,6.81296443939209,-1.7724833488464355
1772884855203698200,9.0796982421875,14.531013488769531,7.267002582550049,-1.5002998113632202
1772884855220308200,9.09630810546875,13.997414588928223,6.473183631896973,-0.5318048596382141
1772884855236915500,9.11291552734375,12.434303283691406,5.5483574867248535,-0.05144568532705307
1772884855253522400,9.1295224609375,10.209575653076172,4.630710124969482,0.3415754437446594
1772884855270129400,9.14612939453125,8.014759063720703,3.9810585975646973,0.8512466549873352
1772884855286736100,9.162736083984376,6.4085774421691895,3.3984062671661377,0.8703892230987549
1772884855303343400,9.17934326171875,6.471388816833496,3.149552822113037,0.997208833694458
1772884855319967700,9.1959677734375,7.696514129638672,2.5848467350006104,0.8763712644577026
1772884855336569300,9.2125693359375,7.249654293060303,2.8139593601226807,-0.23389841616153717
1772884855353178400,9.229178466796874,5.9264235496521,3.0317063331604004,0.019142581149935722
1772884855369784600,9.24578466796875,4.2723846435546875,3.5096726417541504,0.2231307178735733
1772884855386392000,9.26239208984375,4.144368648529053,3.31465744972229,0.5288137793540955
1772884855402997800,9.278997802734375,5.430510997772217,3.7537405490875244,-0.5276173949241638
