time,seconds_elapsed,z,y,x
1772883649012273000,0.17927294921875,7.264011383056641,4.947160720825195,-1.2843475341796875
1772883649028876800,0.195876708984375,7.11146879196167,4.986642360687256,-1.0923235416412354
1772883649045472500,0.212472412109375,7.164709091186523,5.004588603973389,-0.8817551732063293
1772883649062087000,0.2290869140625,7.688138961791992,4.956732273101807,-0.760917603969574
1772883649078708700,0.245708740234375,8.09252643585205,4.799404144287109,-0.8404789566993713
1772883649095332900,0.262332763671875,8.324629783630371,4.602594375610352,-1.073180913925171
1772883649111922000,0.278921875,8.62193775177002,4.454837322235107,-1.357926845550537
1772883649128510700,0.2955107421875,9.400203704833984,4.230510234832764,-1.5409778356552124
1772883649145124900,0.312124755859375,9.94397258758545,4.097110748291016,-1.4733805656433105
1772883649161730600,0.32873046875,10.17846965789795,4.193421840667725,-1.2490534782409668
1772883649178338600,0.345338623046875,10.374082565307617,4.307679176330566,-0.9625129103660583
1772883649194923800,0.361923828125,10.593624114990234,4.414159774780273,-0.776470959186554
1772883649211571700,0.37857177734375,10.74138069152832,4.269991874694824,-0.529412031173706
1772883649228153000,0.395153076171875,10.450055122375488,4.012165546417236,-0.4055834412574768
1772883649244754000,0.41175390625,10.120443344116211,3.7639100551605225,-0.33858439326286316
1772883649261361000,0.42836083984375,9.675378799438477,3.5569307804107666,-0.1986042857170105
1772883649277965600,0.444965576171875,9.253045082092285,3.418147087097168,-0.10169496387243271
1772883649294558700,0.461558837890625,9.087342262268066,3.3200414180755615,-0.04905286431312561
1772883649311180300,0.47818017578125,9.098708152770996,3.243471145629883,-0.020937198773026466
1772883649327763200,0.49476318359375,9.147761344909668,3.1998021602630615,0.064606212079525
1772883649344374000,0.5113740234375,9.044869422912598,3.1405797004699707,0.20817556977272034
1772883649360986400,0.527986328125,8.691329956054688,3.0891339778900146,0.1860419660806656
1772883649377596000,0.544595947265625,8.184051513671875,3.0412776470184326,0.04007977992296219
1772883649394192400,0.5611923828125,7.617550849914551,3.135794162750244,0.015553346835076809
1772883649410806000,0.577805908203125,7.397411346435547,3.401397466659546,0.01375873014330864
1772883649427408100,0.594408203125,7.7491559982299805,3.538984775543213,0.0364905446767807
1772883649444021800,0.611021728515625,8.09252643585205,3.5718860626220703,0.0011964113218709826
1772883649460620500,0.62762060546875,8.10987377166748,3.6634113788604736,-0.04127619042992592
1772883649477212000,0.6442119140625,8.005785942077637,3.858426570892334,-0.0005982056609354913
1772883649493808600,0.66080859375,7.945965766906738,4.004986763000488,0.09631111472845078
1772883649510424300,0.67742431640625,8.075178146362305,4.025924205780029,0.08614161610603333
1772883649527027500,0.69402734375,8.516654014587402,3.9020955562591553,-0.022133609279990196
1772883649543635200,0.71063525390625,9.050851821899414,3.7220356464385986,-0.0891326442360878
1772883649560241000,0.727240966796875,9.498309135437012,3.5880374908447266,-0.13519448041915894
1772883649576845300,0.74384521484375,9.857831001281738,3.5443685054779053,-0.14715859293937683
1772883649593456600,0.76045654296875,10.01037311553955,3.565305709838867,-0.15314064919948578
1772883649610068700,0.77706884765625,9.787242889404297,3.6741790771484375,-0.2991028428077698
1772883649626678000,0.793677978515625,9.369096755981445,3.741776466369629,-0.3774677813053131
1772883649643252000,0.810251953125,9.09990406036377,3.8297126293182373,-0.3756731450557709
1772883649659887000,0.82688720703125,9.210572242736816,3.8398821353912354,-0.26141586899757385
1772883649676493300,0.843493408203125,9.479166984558105,3.8183467388153076,-0.20997019112110138
1772883649693076500,0.860076416015625,9.556933403015137,3.7567315101623535,-0.17288143932819366
1772883649709699600,0.876699462890625,9.550951957702637,3.7812578678131104,-0.28235307335853577
1772883649726287600,0.89328759765625,9.396614074707031,3.8045880794525146,-0.39182472229003906
1772883649742906400,0.90990625,9.08853816986084,3.882952928543091,-0.4325026869773865
1772883649759507700,0.9265078125,8.958727836608887,3.9529430866241455,-0.373878538608551
1772883649776117800,0.94311767578125,9.154939651489258,3.9732820987701416,-0.27397820353507996
1772883649792708600,0.95970849609375,9.607781410217285,3.8488552570343018,-0.22013968229293823
1772883649809330700,0.97633056640625,9.941579818725586,3.6699917316436768,-0.1902294009923935
1772883649825918500,0.99291845703125,9.967901229858398,3.479762315750122,-0.30149564146995544
1772883649842570800,1.00957080078125,9.969695091247559,3.3990044593811035,-0.3355933725833893
1772883649859128300,1.02612841796875,9.870393753051758,3.349353551864624,-0.23030917346477509
1772883649875748000,1.042748046875,9.839286804199219,3.266801118850708,-0.16390834748744965
1772883649892342800,1.0593427734375,9.81117057800293,3.2141590118408203,-0.16390834748744965
1772883649908955100,1.075955078125,9.487542152404785,3.0448668003082275,-0.4408775866031647
1772883649925568800,1.09256884765625,9.192625999450684,3.0311081409454346,-0.8841479420661926
1772883649942175500,1.109175537109375,9.294321060180664,3.3415768146514893,-1.2741780281066895
1772883649958771700,1.125771728515625,9.418149948120117,3.6634113788604736,-1.210768222808838
1772883649975371800,1.142371826171875,9.612566947937012,4.075575351715088,-1.0510473251342773
1772883649991966700,1.158966796875,9.745966911315918,4.490131855010986,-0.6370890140533447
1772883650008576300,1.175576171875,9.555737495422363,4.636094093322754,-0.037088751792907715
1772883650025183200,1.192183349609375,9.485149383544922,4.459623336791992,0.40677985548973083
1772883650041787000,1.208786865234375,9.967901229858398,3.7746777534484863,0.5569294691085815
1772883650058391000,1.22539111328125,10.765907287597656,2.854039192199707,0.6508477330207825
1772883650074996000,1.241995849609375,11.197213172912598,1.9848463535308838,0.3930211067199707
1772883650091603500,1.258603515625,11.193624496459961,1.4865410327911377,-0.13160525262355804
1772883650108221200,1.27522119140625,10.653444290161133,1.3399807214736938,-0.48394837975502014
1772883650124819500,1.2918193359375,9.91825008392334,1.4015958309173584,-0.7423732280731201
1772883650141431300,1.308431396484375,9.29731273651123,1.5260226726531982,-0.9864411354064941
1772883650158023400,1.3250234375,8.419744491577148,1.664208173751831,-0.8991031050682068
1772883650174639000,1.34163916015625,7.961519241333008,2.1547367572784424,-0.6921239495277405
1772883650191229200,1.358229248046875,8.252246856689453,2.534597396850586,-0.5138586759567261
1772883650207850000,1.37485009765625,8.738588333129883,2.710469961166382,-0.2667997181415558
1772883650224450600,1.391450439453125,8.881559371948242,2.6458635330200195,0.1908276081085205
1772883650241063400,1.4080634765625,8.95394229888916,2.5603201389312744,0.7830511927604675
1772883650257666600,1.42466650390625,9.677172660827637,2.3742783069610596,1.069591760635376
1772883650274270000,1.44127001953125,10.594222068786621,1.9728822708129883,1.0995019674301147
1772883650290859500,1.457859619140625,10.948360443115234,1.6055840253829956,0.7836494445800781
1772883650307466500,1.474466552734375,10.552348136901855,1.41834557056427,0.38285163044929504
1772883650324081400,1.491081298828125,9.615557670593262,1.5206388235092163,0.07836493849754333
1772883650340694500,1.507694580078125,8.841479301452637,1.9387845993041992,0.023330021649599075
1772883650357281000,1.524281005859375,8.407780647277832,2.3778674602508545,0.11545369029045105
1772883650373899500,1.5408994140625,8.196015357971191,2.733799934387207,0.25782662630081177
1772883650390498000,1.557498046875,8.157731056213379,3.033500909805298,0.3798605799674988
1772883650407112700,1.57411279296875,8.160123825073242,3.2093734741210938,0.5246263742446899
1772883650423717000,1.590717041015625,8.083553314208984,3.2368907928466797,0.5826523303985596
1772883650440319200,1.6073193359375,8.279166221618652,3.2446675300598145,0.48574298620224
1772883650456896800,1.623896728515625,8.435297966003418,3.2853455543518066,0.39421752095222473
1772883650473536300,1.640536376953125,8.438288688659668,3.3343982696533203,0.21296121180057526
1772883650490111200,1.657111328125,8.353343963623047,3.4923245906829834,0.12861421704292297
1772883650506729700,1.673729736328125,8.368298530578613,3.679563045501709,0.04366901144385338
1772883650523333400,1.69033349609375,8.402995109558105,3.871587038040161,0.04486542567610741
1772883650539937800,1.706937744140625,8.489734649658203,4.036093711853027,-0.08853443711996078
1772883650556544300,1.723544189453125,8.603992462158203,4.05703067779541,-0.14117653667926788
1772883650573164300,1.740164306640625,8.719446182250977,4.104887008666992,0.04486542567610741
1772883650589734000,1.75673388671875,8.959325790405273,4.063611030578613,0.09571290761232376
1772883650606354000,1.77335400390625,9.18724250793457,3.8805601596832275,0.007178467698395252
1772883650622978600,1.789978515625,9.502496719360352,3.6406795978546143,-0.06340979784727097
1772883650639584300,1.806584228515625,9.878170013427734,3.486940860748291,-0.1381855010986328
1772883650656192500,1.823192626953125,10.305289268493652,3.6269209384918213,-0.2877369225025177
1772883650672790800,1.839790771484375,10.404590606689453,3.671786308288574,-0.35054850578308105
1772883650689392400,1.856392333984375,10.058828353881836,3.914059638977051,-0.5856433510780334
1772883650706000600,1.873000732421875,9.753743171691895,4.256831645965576,-0.8207381963729858
1772883650722604500,1.8896044921875,9.573084831237793,4.323830604553223,-0.4893322288990021
1772883650739216100,1.906216064453125,9.749555587768555,4.052245140075684,0.1818545162677765
1772883650755810600,1.922810546875,10.312467575073242,3.5336008071899414,0.6101697683334351
1772883650772421600,1.939421630859375,10.816156387329102,2.823530673980713,0.9182456731796265
1772883650789007000,1.956007080078125,10.952547073364258,2.1888344287872314,0.865005373954773
1772883650805632800,1.9726328125,10.72702407836914,1.8215361833572388,0.4618147611618042
1772883650822235400,1.9892353515625,10.16291618347168,1.622931957244873,-0.005383851006627083
1772883650838831600,2.00583154296875,9.589835166931152,1.7383856773376465,-0.259621262550354
1772883650855421200,2.022421142578125,9.636494636535645,2.026122570037842,-0.3152543902397156
1772883650872059100,2.03905908203125,9.795618057250977,2.2331018447875977,-0.24287149310112
1772883650888637200,2.05563720703125,9.80399227142334,2.352144718170166,-0.14656038582324982
1772883650905266400,2.072266357421875,9.602396965026855,2.444268226623535,0.04666004329919815
1772883650921850400,2.088850341796875,9.538987159729004,2.5944180488586426,0.3397808074951172
1772883650938481400,2.1054814453125,9.410971641540527,2.6195425987243652,0.5850451588630676
1772883650955063300,2.122063232421875,9.498309135437012,2.6147570610046387,0.7040880918502808
1772883650971669500,2.13866943359375,9.605388641357422,2.5573291778564453,0.8273184299468994
1772883650988256800,2.1552568359375,9.653244972229004,2.468794822692871,0.5772684812545776
1772883651004879600,2.171879638671875,9.264410972595215,2.3772692680358887,0.17706887423992157
1772883651021486800,2.18848681640625,8.508877754211426,2.5010979175567627,-0.18125630915164948
1772883651038095400,2.205095458984375,7.841279983520508,2.774477958679199,-0.5150550603866577
1772883651054694700,2.221694580078125,7.41416072845459,3.0484559535980225,-0.6346961855888367
1772883651071318500,2.238318603515625,7.241279602050781,3.3003005981445312,-0.6843472719192505
1772883651087908600,2.25490869140625,7.3776702880859375,3.435495138168335,-0.6652047038078308
1772883651104511200,2.27151123046875,7.692924976348877,3.510270833969116,-0.5706881880760193
1772883651121127200,2.288127197265625,8.0291166305542,3.404388427734375,-0.6448656916618347
1772883651137736700,2.30473681640625,8.1493558883667,3.3535408973693848,-0.7034898400306702
1772883651154326800,2.321326904296875,8.349156379699707,3.441477060317993,-0.6897311210632324
1772883651170954800,2.337954833984375,8.525627136230469,3.476173162460327,-0.6185446381568909
1772883651187540200,2.354540283203125,8.62014389038086,3.6047873497009277,-0.4175475537776947
1772883651204162600,2.37116259765625,8.6303129196167,3.6699917316436768,-0.14895321428775787
1772883651220751000,2.387751220703125,8.769695281982422,3.7034912109375,0.0323031060397625
1772883651237366000,2.404365966796875,8.851051330566406,3.7088751792907715,0.05563312768936157
1772883651253957400,2.420957275390625,8.866005897521973,3.6945180892944336,0.06041877344250679
1772883651270564900,2.43756494140625,9.005388259887695,3.6670007705688477,0.11186445504426956
1772883651287158300,2.454158203125,9.092127799987793,3.67238450050354,0.1782652884721756
1772883651303784000,2.470783935546875,9.002396583557129,3.613760471343994,0.2021935135126114
1772883651320398000,2.487398193359375,8.956335067749023,3.545564889907837,0.29312077164649963
1772883651336988700,2.50398876953125,8.910871505737305,3.4295129776000977,0.3355933725833893
1772883651353584600,2.520584716796875,8.944371223449707,3.411566972732544,0.30149564146995544
1772883651370190300,2.5371904296875,9.192028045654297,3.631706476211548,0.024526432156562805
1772883651386815500,2.5538154296875,9.283554077148438,3.7639100551605225,-0.23808585107326508
1772883651403415300,2.570415283203125,9.312865257263184,3.9008991718292236,-0.5431707501411438
1772883651420037600,2.58703759765625,9.149555206298828,3.93679141998291,-0.5228317379951477
1772883651436629000,2.60362890625,9.235098838806152,4.0833516120910645,-0.15912270545959473
1772883651453216000,2.620216064453125,10.068997383117676,4.122833251953125,0.18065811693668365
1772883651469823200,2.6368232421875,11.367103576660156,3.637688636779785,0.3852444589138031
1772883651486428400,2.653428466796875,12.389437675476074,2.6967110633850098,0.35832518339157104
1772883651503032300,2.6700322265625,12.754343032836914,1.7371892929077148,-0.02871387079358101
1772883651519638800,2.686638671875,12.364911079406738,1.1300104856491089,-0.6245267391204834
1772883651536243700,2.70324365234375,11.497512817382812,1.0007981061935425,-1.155733346939087
1772883651552863700,2.71986376953125,10.529616355895996,1.2221341133117676,-1.4452649354934692
1772883651569464800,2.73646484375,9.388837814331055,1.6115660667419434,-1.3932210206985474
1772883651586071000,2.753071044921875,8.405387878417969,2.0440688133239746,-1.2023934125900269
1772883651602676500,2.769676513671875,7.933403491973877,2.455634355545044,-1.225723385810852
1772883651619281200,2.78628125,7.999804496765137,2.7248268127441406,-1.2861422300338745
1772883651635875800,2.802875732421875,8.289336204528809,2.857030153274536,-1.2293126583099365
1772883651652514000,2.81951416015625,8.47178840637207,2.9144580364227295,-1.0097711086273193
1772883651669082600,2.83608251953125,8.746963500976562,2.8809585571289062,-0.6771687865257263
1772883651685687300,2.852687255859375,9.54377269744873,2.6285157203674316,-0.30568310618400574
1772883651702309000,2.86930908203125,10.480563163757324,2.2396819591522217,-0.13160525262355804
1772883651718909700,2.88590966796875,11.042876243591309,1.825723648071289,-0.20997019112110138
1772883651735512800,2.902512939453125,11.11884880065918,1.4895321130752563,-0.5856433510780334
1772883651752103700,2.919103759765625,10.75693416595459,1.2921242713928223,-0.8817551732063293
1772883651768719000,2.935718994140625,10.012765884399414,1.394417405128479,-0.9439685344696045
1772883651785333000,2.9523330078125,9.354142189025879,1.6396816968917847,-0.771087110042572
1772883651801936100,2.96893603515625,8.930612564086914,1.848455548286438,-0.5132604837417603
1772883651818559000,2.98555908203125,8.704490661621094,1.9316060543060303,-0.4827519655227661
1772883651835152000,3.00215185546875,8.748159408569336,1.851446509361267,-0.6029912829399109
1772883651851736800,3.01873681640625,8.724231719970703,1.8089739084243774,-0.6945167779922485
1772883651868342800,3.0353427734375,8.533403396606445,1.820937991142273,-0.6215356588363647
1772883651884953300,3.051953369140625,8.397610664367676,1.9334007501602173,-0.5096712112426758
1772883651901571600,3.068571533203125,8.446663856506348,2.2097716331481934,-0.3068794906139374
1772883651918172200,3.085172119140625,8.536993026733398,2.6051857471466064,0.010767702013254166
1772883651934781400,3.101781494140625,8.689535140991211,2.991626501083374,0.3475574851036072
1772883651951374600,3.11837451171875,8.964112281799316,3.2644083499908447,0.7022934556007385
1772883651967959300,3.134959228515625,9.199206352233887,3.538386583328247,0.8656035661697388
1772883651984567800,3.15156787109375,9.412766456604004,3.697509288787842,1.022931694984436
1772883652001185300,3.168185302734375,9.636494636535645,3.775874137878418,1.1276177167892456
1772883652017788200,3.1847880859375,9.633503913879395,3.7082769870758057,1.179661512374878
1772883652034396200,3.201396240234375,9.520442962646484,3.583850145339966,1.0265209674835205
1772883652051021300,3.218021240234375,9.31884765625,3.4277184009552,0.5054838061332703
1772883652067619800,3.234619873046875,9.17587661743164,3.445664644241333,-0.1010967567563057
1772883652084235800,3.25123583984375,9.077771186828613,3.4755749702453613,-0.3924229145050049
1772883652100830500,3.26783056640625,8.984451293945312,3.552743434906006,-0.5491527915000916
1772883652117428700,3.2844287109375,9.31466007232666,3.7537405490875244,-0.6879364848136902
1772883652134047000,3.301046875,9.89432144165039,3.565903902053833,-0.4007977843284607
1772883652150629000,3.317629150390625,10.736595153808594,3.2165517807006836,0.13698910176753998
1772883652167234300,3.334234375,11.839686393737793,2.723032236099243,0.4905286431312561
1772883652183851800,3.350851806640625,12.9290189743042,2.032104730606079,0.4456632137298584
1772883652200444400,3.3674443359375,13.544572830200195,1.2885349988937378,0.29312077164649963
1772883652217046800,3.384046875,13.216755867004395,0.6023930907249451,0.046061836183071136
1772883652233659100,3.4006591796875,12.294322967529297,0.15553347766399384,-0.3487538993358612
1772883652250264300,3.417264404296875,10.959726333618164,-0.02273181453347206,-0.7968099117279053
1772883652266881500,3.433881591796875,9.758528709411621,0.09152546525001526,-1.1527422666549683
1772883652283491800,3.450491943359375,8.906683921813965,0.37866419553756714,-1.069591760635376
1772883652300086800,3.467086669921875,8.407182693481445,0.8997012972831726,-0.5413761138916016
1772883652316692700,3.483692626953125,8.10389232635498,1.4380863904953003,-0.009571290574967861
1772883652333305300,3.500305419921875,8.066205024719238,1.8586249351501465,0.5437689423561096
1772883652349917400,3.51691748046875,8.070990562438965,2.200798511505127,0.8524430394172668
1772883652366512000,3.53351220703125,7.673183917999268,2.3431715965270996,1.0803594589233398
1772883652383116300,3.5501162109375,7.468597888946533,2.527418851852417,1.0827522277832031
1772883652399722200,3.56672216796875,7.503293514251709,2.4610180854797363,1.0917253494262695
1772883652416327400,3.583327392578125,7.802396297454834,2.218146562576294,0.7537391185760498
1772883652432902100,3.599902099609375,8.164310455322266,1.937588095664978,0.4001995921134949
1772883652449523500,3.6165234375,8.334200859069824,1.7168502807617188,0.11545369029045105
1772883652466129000,3.63312890625,8.395217895507812,1.6534404754638672,-0.22971096634864807
1772883652482733600,3.649733642578125,8.326424598693848,1.6408780813217163,-0.5210371017456055
1772883652499335200,3.666335205078125,7.968697547912598,1.8005990982055664,-0.6759724020957947
1772883652515942100,3.682942138671875,7.909475326538086,2.1068804264068604,-0.7639086246490479
1772883652532554500,3.699554443359375,8.050053596496582,2.252842426300049,-0.8452646136283875
1772883652549150200,3.716150146484375,8.056035995483398,2.397010087966919,-0.9445667266845703
1772883652565773300,3.732773193359375,8.278568267822266,2.538186550140381,-0.9302098155021667
1772883652582373000,3.749373046875,8.572885513305664,2.674577474594116,-0.8207381963729858
1772883652598987000,3.765987060546875,8.642276763916016,2.8426733016967773,-0.7722834944725037
1772883652615589600,3.782589599609375,8.873184204101562,3.059821844100952,-0.6861419081687927
1772883652632191700,3.799191650390625,9.076574325561523,3.2141590118408203,-0.5665007829666138
1772883652648767200,3.815767333984375,9.370293617248535,3.3750762939453125,-0.5575276613235474
1772883652665403000,3.83240283203125,9.6466646194458,3.435495138168335,-0.5629115104675293
1772883652682008000,3.849008056640625,10.110274314880371,3.445066452026367,-0.5754738450050354
1772883652698617900,3.865617919921875,10.412965774536133,3.3960134983062744,-0.5964110493659973
1772883652715214300,3.88221435546875,10.555936813354492,3.4121651649475098,-0.625723123550415
1772883652731815000,3.89881494140625,10.795219421386719,3.4193434715270996,-0.5694918036460876
1772883652748412000,3.915411865234375,11.155937194824219,3.308675527572632,-0.6442674994468689
1772883652765033200,3.932033203125,11.258230209350586,3.1902308464050293,-0.6652047038078308
1772883652781639200,3.94863916015625,11.188240051269531,3.0939197540283203,-0.6795616149902344
1772883652798248400,3.96524853515625,10.989038467407227,3.2033913135528564,-0.8691928386688232
1772883652814840800,3.9818408203125,10.942975997924805,3.2482566833496094,-1.1407781839370728
1772883652831458300,3.998458251953125,11.271988868713379,3.2165517807006836,-1.4781662225723267
1772883652848043500,4.01504345703125,11.653644561767578,3.005385160446167,-1.5391831398010254
1772883652864664000,4.0316640625,11.568100929260254,2.806182861328125,-1.2340983152389526
1772883652881260800,4.0482607421875,11.432308197021484,3.008376359939575,-0.9732806086540222
1772883652897849300,4.064849365234375,11.007582664489746,3.104687452316284,-0.4582255482673645
1772883652914472400,4.081472412109375,10.074979782104492,2.854039192199707,0.31046873331069946
1772883652931072800,4.09807275390625,9.020941734313965,2.668595552444458,1.079761266708374
1772883652947675600,4.114675537109375,8.964710235595703,2.736790895462036,1.4584254026412964
1772883652964281300,4.13128125,9.655637741088867,2.6249263286590576,1.444068431854248
1772883652980886000,4.147885986328125,10.101899147033691,2.2157537937164307,1.1563315391540527
1772883652997494500,4.16449462890625,9.945169448852539,1.97407865524292,0.6628118753433228
1772883653014089700,4.18108984375,9.199206352233887,1.7874385118484497,0.21655045449733734
1772883653030721500,4.197721435546875,8.428717613220215,1.944766640663147,-0.13220344483852386
1772883653047320300,4.2143203125,8.246265411376953,2.225325107574463,-0.14835500717163086
1772883653063925000,4.230925048828125,8.597412109375,2.423929452896118,0.023330021649599075
1772883653080528100,4.247528076171875,8.803792953491211,2.462812662124634,0.1950150430202484
1772883653097136000,4.26413623046875,9.042476654052734,2.5740790367126465,0.4384847581386566
1772883653113733600,4.280733642578125,9.68913745880127,2.6219353675842285,0.664606511592865
1772883653130356000,4.29735595703125,10.345967292785645,2.585444927215576,0.7465606927871704
1772883653146913300,4.313913330078125,10.744970321655273,2.4747767448425293,0.7244270443916321
1772883653163556400,4.330556396484375,10.64686393737793,2.3306093215942383,0.6664010882377625
1772883653180156700,4.34715673828125,10.135398864746094,2.2546372413635254,0.5443671345710754
1772883653196774400,4.3637744140625,9.509675025939941,2.4538395404815674,0.5162515044212341
1772883653213362700,4.38036279296875,8.883952140808105,2.699103832244873,0.7076773047447205
1772883653229979600,4.396979736328125,8.485547065734863,2.7942185401916504,0.8111668825149536
1772883653246570000,4.413570068359375,8.318049430847168,2.8115665912628174,0.7932206988334656
1772883653263183600,4.43018359375,8.139784812927246,2.815753936767578,0.6747759580612183
1772883653279787500,4.44678759765625,7.791030406951904,2.825923442840576,0.7435696125030518
1772883653296396500,4.463396484375,7.482954502105713,2.922234535217285,0.8225327730178833
1772883653313005000,4.480005126953125,7.356733322143555,3.0592236518859863,0.8721838593482971
1772883653329606700,4.496606689453125,7.3298139572143555,3.2213375568389893,0.9116654396057129
1772883653346195000,4.51319482421875,7.245467185974121,3.373281717300415,0.9230313301086426
1772883653362799400,4.52979931640625,7.112067222595215,3.5922250747680664,0.8967102766036987
1772883653379417600,4.54641748046875,7.036095142364502,3.8213376998901367,0.8656035661697388
1772883653396030700,4.56303076171875,7.299305438995361,4.049253940582275,0.8368897438049316
1772883653412615200,4.579615234375,7.7180495262146,4.188037872314453,0.8500502705574036
1772883653429223400,4.596223388671875,7.957331657409668,4.396811485290527,0.768694281578064
1772883653445828000,4.612828125,8.094321250915527,4.512863636016846,0.8452646136283875
1772883653462433300,4.629433349609375,8.420342445373535,4.557130813598633,1.0683952569961548
1772883653479039000,4.6460390625,9.017950057983398,4.460819721221924,1.3752747774124146
1772883653495647000,4.66264697265625,9.946365356445312,4.225724697113037,1.4829518795013428
1772883653512242700,4.67924267578125,10.890932083129883,3.844667673110962,1.389033555984497
1772883653528873700,4.695873779296875,11.586047172546387,3.6681971549987793,1.0348957777023315
1772883653545455900,4.712455810546875,11.753544807434082,3.613760471343994,0.8799605369567871
1772883653562077700,4.72907763671875,11.3718900680542,3.55214524269104,0.9248259663581848
1772883653578681900,4.745681884765625,10.88435173034668,3.9595232009887695,0.7537391185760498
1772883653595292000,4.7622919921875,10.197013854980469,4.156930923461914,0.8548358678817749
1772883653611893000,4.77889306640625,9.762716293334961,4.146761417388916,0.9577272534370422
1772883653628495000,4.7954951171875,9.617950439453125,3.981656789779663,1.057627558708191
1772883653645088500,4.812088623046875,9.68494987487793,3.5084762573242188,1.1204391717910767
1772883653661707800,4.828707763671875,9.952945709228516,2.956930637359619,1.0289137363433838
1772883653678310700,4.845310546875,10.17308521270752,2.423929452896118,0.9427721500396729
1772883653694922000,4.861921875,10.132407188415527,1.9848463535308838,0.786640465259552
1772883653711523000,4.878523193359375,9.584450721740723,1.7940187454223633,0.5539384484291077
1772883653728128000,4.8951279296875,8.851051330566406,1.8203397989273071,0.44327038526535034
1772883653744727300,4.911727294921875,8.311469078063965,2.039283037185669,0.4815555512905121
1772883653761338600,4.928338623046875,8.157132148742676,2.3952155113220215,0.5856433510780334
1772883653777939700,4.944939697265625,8.409575462341309,2.7696921825408936,0.7782655358314514
1772883653794553000,4.961552978515625,8.62732219696045,2.985046148300171,1.0558329820632935
1772883653811154000,4.97815380859375,8.575278282165527,3.2518460750579834,1.1922239065170288
1772883653827758800,4.9947587890625,8.283353805541992,3.5443685054779053,1.2628121376037598
1772883653844338400,5.01133837890625,7.9968132972717285,3.8081772327423096,1.3956137895584106
1772883653860971300,5.02797119140625,7.7802629470825195,3.9523448944091797,1.679761528968811
1772883653877574700,5.04457470703125,8.022536277770996,4.055236339569092,1.6983058452606201
1772883653894184000,5.061183837890625,8.815756797790527,3.8255252838134766,1.5439687967300415
1772883653910762500,5.077762451171875,9.404391288757324,3.4372897148132324,1.1982059478759766
1772883653927375600,5.094375732421875,9.44626522064209,3.0969107151031494,0.784247636795044
1772883653943967700,5.1109677734375,9.153742790222168,2.9730820655822754,0.27816563844680786
1772883653960586200,5.127586181640625,8.638090133666992,3.0287153720855713,-0.11066804826259613
1772883653977191200,5.144191162109375,8.09850788116455,3.1250264644622803,-0.35114672780036926
1772883653993796400,5.16079638671875,7.713263988494873,3.259622573852539,-0.36670008301734924
1772883654010409700,5.17740966796875,7.755138397216797,3.3272199630737305,-0.34277185797691345
1772883654027019800,5.194019775390625,7.923233985900879,3.3332018852233887,-0.27696922421455383
1772883654043621400,5.210621337890625,8.11944580078125,3.3583266735076904,-0.19621145725250244
1772883654060230000,5.22722998046875,8.123034477233887,3.410968780517578,-0.17228323221206665
1772883654076835300,5.24383544921875,8.175078392028809,3.4498519897460938,-0.19621145725250244
1772883654093440800,5.260440673828125,8.3359956741333,3.524029493331909,-0.2584248483181
1772883654110045200,5.277045166015625,8.395816802978516,3.6161532402038574,-0.35413774847984314
1772883654126653400,5.2936533203125,8.492127418518066,3.7573297023773193,-0.5210371017456055
1772883654143266300,5.310266357421875,8.740981101989746,3.9672999382019043,-0.6975077986717224
1772883654159860700,5.32686083984375,8.868398666381836,4.2245283126831055,-0.9260223507881165
1772883654176471600,5.343471435546875,8.828319549560547,4.479962348937988,-1.2011969089508057
1772883654193065000,5.36006494140625,8.885149002075195,4.721039295196533,-1.3764712810516357
1772883654209676300,5.37667626953125,9.056833267211914,4.7605204582214355,-1.3058829307556152
1772883654226267100,5.39326708984375,9.46181869506836,4.700101852416992,-1.00259268283844
1772883654242869200,5.409869140625,10.406984329223633,4.646263599395752,-0.7734799385070801
1772883654259490800,5.42649072265625,11.813963890075684,4.398606300354004,-0.7549355626106262
1772883654276089600,5.443089599609375,13.038490295410156,3.909274101257324,-0.8081758618354797
1772883654292691500,5.45969140625,13.488341331481934,3.576671600341797,-1.057029366493225
1772883654309292300,5.476292236328125,13.298709869384766,3.215355396270752,-1.0301101207733154
1772883654325884700,5.492884765625,12.852448463439941,3.0759735107421875,-0.9379864931106567
1772883654342503000,5.5095029296875,12.067004203796387,3.142972469329834,-0.7848458290100098
1772883654359108400,5.5261083984375,11.176874160766602,3.2506494522094727,-0.5443671345710754
1772883654375709700,5.542709716796875,10.557133674621582,3.410968780517578,-0.4630111753940582
1772883654392321500,5.559321533203125,10.148558616638184,3.305086374282837,-0.31824541091918945
1772883654408923600,5.575923583984375,9.920044898986816,2.770888566970825,-0.23449662327766418
1772883654425528300,5.5925283203125,10.05404281616211,2.1894326210021973,-0.3978067636489868
1772883654442121700,5.609121826171875,10.200004577636719,1.7473586797714233,-0.5641079545021057
1772883654458738700,5.62573876953125,10.02413272857666,1.4021940231323242,-0.714257538318634
1772883654475344400,5.642344482421875,9.518648147583008,1.2305090427398682,-0.8799605369567871
1772883654491948500,5.658948486328125,8.85763168334961,1.2335001230239868,-0.9529415965080261
1772883654508570400,5.6755703125,7.973483085632324,1.4207384586334229,-0.9990034699440002
1772883654525175300,5.69217529296875,7.226324558258057,1.7425731420516968,-0.96370929479599
1772883654541749800,5.708749755859375,7.025327205657959,2.077568292617798,-0.6921239495277405
1772883654558382600,5.725382568359375,7.3537421226501465,2.279761791229248,-0.36251261830329895
1772883654574991000,5.7419912109375,7.8041911125183105,2.4287149906158447,0.15254244208335876
1772883654591589400,5.75858935546875,8.12662410736084,2.5190439224243164,0.6771687865257263
1772883654608198100,5.7751982421875,8.501100540161133,2.572284460067749,1.0630114078521729
1772883654624804400,5.791804443359375,8.962915420532227,2.4993033409118652,1.2131611108779907
1772883654641423600,5.808423583984375,9.43489933013916,2.5250260829925537,1.0671988725662231
1772883654658016000,5.82501611328125,9.54078197479248,2.4981069564819336,1.0085747241973877
1772883654674612200,5.8416123046875,9.389435768127441,2.630908489227295,0.9487541913986206
1772883654691227400,5.858227294921875,9.44626522064209,2.8809585571289062,0.8925228714942932
1772883654707828200,5.874828125,9.342177391052246,3.0759735107421875,0.8614161610603333
1772883654724420900,5.8914208984375,9.150752067565918,3.3134610652923584,0.8350951075553894
1772883654741031200,5.90803125,8.847461700439453,3.4480574131011963,0.9577272534370422
1772883654757644500,5.92464453125,8.655437469482422,3.5306098461151123,1.088136076927185
1772883654774244900,5.941244873046875,8.698508262634277,3.5922250747680664,1.2610175609588623
1772883654790856000,5.95785595703125,8.927022933959961,3.6424741744995117,1.2693923711776733
1772883654807459300,5.974459228515625,9.032307624816895,3.597010612487793,1.072582721710205
1772883654824074000,5.991073974609375,8.98385238647461,3.5509488582611084,0.828514814376831
1772883654840694800,6.00769482421875,8.662017822265625,3.5162527561187744,0.5527420043945312
1772883654857274600,6.024274658203125,8.36590576171875,3.649054527282715,0.29730820655822754
1772883654873876200,6.040876220703125,8.168498039245605,3.916452407836914,0.1423729509115219
1772883654890471000,6.057470947265625,7.897511005401611,4.2825541496276855,0.026919255033135414
1772883654907075600,6.07407568359375,7.830512046813965,4.521238327026367,0.02392822690308094
1772883654923682800,6.090682861328125,8.082356452941895,4.657629489898682,0.08614161610603333
1772883654940273000,6.10727294921875,8.173882484436035,4.680959224700928,0.267397940158844
1772883654956891400,6.123891357421875,8.170890808105469,4.659423828125,0.5162515044212341
1772883654973495800,6.140495849609375,8.435297966003418,4.637888431549072,0.6101697683334351
1772883654990101200,6.157101318359375,8.992227554321289,4.689334392547607,0.3487538993358612
1772883655006723600,6.1737236328125,9.364909172058105,4.440480709075928,0.21595224738121033
1772883655023340000,6.190340087890625,9.711270332336426,4.489533424377441,-0.07238288223743439
1772883655039917800,6.206917724609375,9.89432144165039,4.650450706481934,-0.14895321428775787
1772883655056534800,6.22353466796875,9.612566947937012,4.679164886474609,0.015553346835076809
1772883655073140500,6.240140380859375,9.346963882446289,4.631906509399414,0.21774685382843018
1772883655089745200,6.2567451171875,9.284749984741211,4.2454657554626465,0.5497509837150574
1772883655106350300,6.273350341796875,9.629914283752441,3.731606960296631,0.6777670383453369
1772883655122966800,6.289966796875,10.114460945129395,3.166900873184204,0.7238288521766663
1772883655139538700,6.30653857421875,10.140782356262207,2.7804598808288574,0.6346961855888367
1772883655156165600,6.32316552734375,9.859027862548828,2.640479803085327,0.3481557071208954
1772883655172764400,6.339764404296875,9.332008361816406,2.6458635330200195,0.2267199456691742
1772883655189381600,6.356381591796875,9.034101486206055,2.925823926925659,0.11545369029045105
1772883655205981700,6.372981689453125,9.023932456970215,3.235694408416748,0.251844584941864
1772883655222587000,6.3895869140625,9.034700393676758,3.5300116539001465,0.5312066078186035
1772883655239174100,6.406174072265625,9.046664237976074,3.7806596755981445,0.9110672473907471
1772883655255796000,6.4227958984375,8.86361312866211,3.929612874984741,1.1665010452270508
1772883655272396800,6.439396728515625,8.499305725097656,4.034298896789551,1.3465609550476074
1772883655289012000,6.456011962890625,8.322834968566895,4.040879249572754,1.4434702396392822
1772883655305611300,6.472611328125,8.642276763916016,3.8392839431762695,1.4015958309173584
1772883655322213000,6.489213134765625,9.283554077148438,3.5030922889709473,1.1850453615188599
1772883655338832600,6.50583251953125,9.479166984558105,3.1824541091918945,0.914058268070221
1772883655355420000,6.522419921875,9.398408889770508,3.0173492431640625,0.5306084156036377
1772883655372012800,6.5390126953125,9.09093189239502,2.973680257797241,0.17766708135604858
1772883655388612900,6.55561279296875,8.766105651855469,3.0592236518859863,-0.2021935135126114
1772883655405215200,6.57221533203125,8.326424598693848,3.2374889850616455,-0.34695929288864136
1772883655421833500,6.58883349609375,7.792226791381836,3.446262836456299,-0.2273181527853012
1772883655438438400,6.6054384765625,7.558926582336426,3.7328033447265625,0.08673982322216034
1772883655455043600,6.622043701171875,7.744370460510254,3.923032760620117,0.49351966381073
1772883655471651000,6.638651123046875,8.173283576965332,4.13060998916626,0.8231309652328491
1772883655488254200,6.655254150390625,8.376673698425293,4.318446636199951,0.9619147181510925
1772883655504871400,6.671871337890625,8.193024635314941,4.342374801635742,0.7429714202880859
1772883655521481500,6.6884814453125,7.909475326538086,4.322035789489746,0.5150550603866577
1772883655538079000,6.705078857421875,7.798807144165039,4.297509670257568,0.4007977843284607
1772883655554692000,6.721692138671875,7.859824180603027,4.323830604553223,0.23808585107326508
1772883655571293000,6.73829296875,7.953742504119873,4.335794448852539,0.022133609279990196
1772883655587898400,6.7548984375,8.182855606079102,4.325026988983154,-0.13220344483852386
1772883655604502800,6.771502685546875,8.361120223999023,4.241278171539307,-0.17706887423992157
1772883655621108700,6.788108642578125,8.670990943908691,4.302295207977295,-0.1782652884721756
1772883655637722600,6.80472265625,9.125627517700195,4.316651821136475,-0.15194423496723175
1772883655654322700,6.82132275390625,9.093324661254883,4.249054908752441,-0.1663011759519577
1772883655670919700,6.837919677734375,8.940781593322754,4.237090587615967,-0.05563312768936157
1772883655687533300,6.854533203125,9.040681838989258,4.365106582641602,0.24107688665390015
1772883655704133000,6.871133056640625,9.510871887207031,4.420141696929932,0.544965386390686
1772883655720739000,6.887739013671875,10.04566764831543,4.337589263916016,0.8620143532752991
1772883655737343000,6.904343017578125,10.401001930236816,4.264608383178711,0.8925228714942932
1772883655753949700,6.92094970703125,10.415956497192383,4.170690059661865,0.6861419081687927
1772883655770547700,6.937547607421875,10.281360626220703,4.095315933227539,0.3517449200153351
1772883655787165400,6.95416552734375,10.187442779541016,3.8673996925354004,0.020338991656899452
1772883655803764200,6.97076416015625,10.26760196685791,3.823132276535034,-0.3487538993358612
1772883655820369400,6.987369384765625,10.246665000915527,3.872185230255127,-0.49172505736351013
1772883655836972500,7.00397265625,9.985248565673828,4.027718544006348,-0.5413761138916016
1772883655853583000,7.0205830078125,9.730413436889648,4.129413604736328,-0.4247260093688965
1772883655870163200,7.0371630859375,9.719047546386719,3.875774383544922,0.09032905846834183
1772883655886778600,7.053778564453125,10.282557487487793,3.3469607830047607,0.5946164131164551
1772883655903380500,7.07038037109375,11.051849365234375,2.717050075531006,0.786640465259552
1772883655919986200,7.086986083984375,11.496914863586426,2.1020946502685547,0.5120640397071838
1772883655936591000,7.103591064453125,11.152348518371582,1.6821542978286743,-0.058624155819416046
1772883655953196000,7.120196044921875,10.136594772338867,1.536790370941162,-0.617946445941925
1772883655969801200,7.13680126953125,9.087342262268066,1.781456470489502,-0.9116654396057129
1772883655986410000,7.153409912109375,8.501100540161133,2.181057929992676,-0.8099704384803772
1772883656003025700,7.170025634765625,8.35154914855957,2.5746772289276123,-0.576670229434967
1772883656019630800,7.186630859375,8.638090133666992,2.723032236099243,-0.23270200192928314
1772883656036232400,7.203232421875,8.85344409942627,2.5698914527893066,0.06640082597732544
1772883656052812800,7.219812744140625,8.894122123718262,2.3090739250183105,0.3846462368965149
1772883656069449700,7.23644970703125,9.098708152770996,2.1056840419769287,0.381655216217041
1772883656086047200,7.253047119140625,9.32722282409668,1.8747764825820923,0.24047867953777313
1772883656102655500,7.269655517578125,9.635896682739258,1.6791633367538452,0.01196411345154047
1772883656119260200,7.28626025390625,9.68076229095459,1.5002998113632202,-0.25244277715682983
1772883656135865900,7.302865966796875,9.42772102355957,1.430907964706421,-0.3517449200153351
1772883656152466700,7.319466796875,9.232706069946289,1.6671991348266602,-0.22013968229293823
1772883656169077200,7.3360771484375,8.9312105178833,1.9639091491699219,-0.019740786403417587
1772883656185684000,7.35268408203125,8.598010063171387,2.193620204925537,0.09810572862625122
1772883656202286300,7.369286376953125,8.327621459960938,2.3569302558898926,0.2590230405330658
1772883656218891000,7.38589111328125,8.206783294677734,2.562713146209717,0.6484549641609192
1772883656235497700,7.402497802734375,8.184051513671875,2.861217737197876,0.9858429431915283
1772883656252100400,7.419100341796875,8.368298530578613,3.0628130435943604,1.215553879737854
1772883656268709400,7.43570947265625,8.615358352661133,3.1794631481170654,1.2532408237457275
1772883656285308400,7.452308349609375,8.780462265014648,3.2685956954956055,1.1575279235839844
1772883656301916200,7.468916259765625,8.850452423095703,3.332005500793457,1.0666006803512573
1772883656318521600,7.485521484375,8.839086532592773,3.428316593170166,1.043868899345398
1772883656335129000,7.502129150390625,9.147761344909668,3.5605201721191406,1.0666006803512573
1772883656351712500,7.51871240234375,9.5862455368042,3.6370904445648193,1.0456634759902954
1772883656368322000,7.535322021484375,9.780662536621094,3.7298123836517334,1.0546365976333618
1772883656384926200,7.55192626953125,9.573084831237793,3.837489366531372,1.1001001596450806
1772883656401536500,7.56853662109375,9.257232666015625,3.895515203475952,1.211964726448059
1772883656418138600,7.585138671875,9.236295700073242,3.7836508750915527,1.4075778722763062
1772883656434743300,7.601743408203125,9.620942115783691,3.6681971549987793,1.3471591472625732
1772883656451344400,7.618344482421875,10.119247436523438,3.372683525085449,1.275374412536621
1772883656467957500,7.63495751953125,10.510473251342773,3.3266217708587646,1.0193424224853516
1772883656484576000,7.651575927734375,10.175477981567383,3.31884503364563,0.9349954724311829
1772883656501179000,7.668178955078125,9.628718376159668,3.328416347503662,0.7657032608985901
1772883656517766000,7.684765869140625,9.378668785095215,3.548556089401245,0.4863412082195282
1772883656534371000,7.70137109375,9.234500885009766,3.580260992050171,0.46360939741134644
1772883656550989000,7.717989013671875,9.10229778289795,3.346362352371216,0.8117650747299194
1772883656567598000,7.73459814453125,8.994620323181152,3.0275187492370605,1.054038405418396
1772883656584207400,7.751207275390625,9.20159912109375,2.761317253112793,1.1467602252960205
1772883656600808700,7.76780859375,9.66819953918457,2.383251428604126,1.184447169303894
1772883656617412900,7.784412841796875,9.984650611877441,2.043470621109009,1.0031908750534058
1772883656634014200,7.80101416015625,10.072587013244629,1.8035900592803955,0.617946445941925
1772883656650613000,7.817613037109375,9.81117057800293,1.6582261323928833,0.43190449476242065
1772883656667229200,7.834229248046875,9.81954574584961,1.6785650253295898,0.3026920557022095
1772883656683831300,7.850831298828125,9.863214492797852,1.664208173751831,0.35054850578308105
1772883656700438300,7.867438232421875,9.93679428100586,1.9022940397262573,0.6436693072319031
1772883656717043500,7.88404345703125,9.949356079101562,2.181057929992676,1.1096714735031128
1772883656733640700,7.900640625,9.592227935791016,2.4981069564819336,1.6157535314559937
1772883656750262800,7.9172626953125,9.205188751220703,2.836092948913574,1.9507486820220947
1772883656766859000,7.93385888671875,9.008378982543945,2.9240293502807617,2.0721843242645264
1772883656783464200,7.950464111328125,9.032307624816895,2.8348965644836426,1.82273268699646
1772883656800069600,7.967069580078125,9.005986213684082,2.602792739868164,1.490728497505188
1772883656816674000,7.983674072265625,8.973084449768066,2.4149563312530518,1.064207911491394
1772883656833284000,8.0002841796875,8.915657043457031,2.3539392948150635,0.844068169593811
1772883656849863000,8.01686279296875,8.772088050842285,2.521436929702759,0.6640082597732544
1772883656866475800,8.033475830078125,8.554939270019531,2.609971284866333,0.6424728631973267
1772883656883081200,8.050081298828125,8.62612533569336,2.696112871170044,0.7525427341461182
1772883656899685600,8.066685546875,8.814560890197754,2.8695926666259766,0.8434699773788452
1772883656916290800,8.083290771484375,8.795417785644531,2.8929226398468018,0.9104689955711365
1772883656932895700,8.099895751953126,8.637491226196289,2.9048867225646973,0.9403793215751648
1772883656949492200,8.1164921875,8.461020469665527,2.851048231124878,0.859621524810791
1772883656966105900,8.13310595703125,8.35992431640625,2.799004316329956,0.6496513485908508
1772883656982728700,8.149728759765624,8.383852005004883,2.7529425621032715,0.4815555512905121
1772883656999329800,8.166329833984374,8.508278846740723,2.703291416168213,0.31824541091918945
1772883657015932000,8.182931884765624,8.636295318603516,2.7146573066711426,0.19740787148475647
1772883657032539000,8.199538818359375,8.650651931762695,2.6727828979492188,0.09212367236614227
1772883657049150000,8.21614990234375,8.673383712768555,2.702693223953247,-0.05144568532705307
1772883657065750000,8.23275,8.806185722351074,2.719442844390869,-0.14297115802764893
1772883657082355700,8.249355712890624,8.93958568572998,2.7499513626098633,-0.1860419660806656
1772883657098960400,8.26596044921875,9.153742790222168,2.847458839416504,-0.11964113265275955
1772883657115565300,8.2825654296875,9.251849174499512,3.005385160446167,0.053240302950143814
1772883657132166400,8.29916650390625,9.202198028564453,3.1334011554718018,0.0975075215101242
1772883657148780300,8.3157802734375,9.176474571228027,3.2243285179138184,0.064606212079525
1772883657165380900,8.332380859375,9.454042434692383,3.236292600631714,0.14416755735874176
1772883657181986000,8.348986083984375,9.804591178894043,3.238685369491577,0.30987054109573364
1772883657198591500,8.365591552734376,10.077372550964355,3.283550977706909,0.4618147611618042
1772883657215196700,8.38219677734375,10.50508975982666,3.187838077545166,0.4486542344093323
1772883657231797200,8.39879736328125,10.777273178100586,3.0831520557403564,0.11186445504426956
1772883657248406000,8.415406005859374,10.737792015075684,3.06999135017395,-0.09391828626394272
1772883657264981000,8.43198095703125,10.6025972366333,3.1076784133911133,-0.1788634955883026
1772883657281617200,8.4486171875,10.503294944763184,3.2608189582824707,-0.33020952343940735
1772883657298221800,8.465221923828125,10.27777099609375,3.3481571674346924,-0.18484555184841156
1772883657314826200,8.481826171875,10.118648529052734,3.460021495819092,-0.0011964113218709826
1772883657331411700,8.49841162109375,10.25204849243164,3.2931220531463623,0.10707881301641464
1772883657348027000,8.51502685546875,10.453045845031738,2.8624141216278076,0.3607180118560791
1772883657364628200,8.531628173828125,10.74556827545166,2.286940336227417,0.2829512655735016
1772883657381233400,8.5482333984375,11.053046226501465,1.6133606433868408,-0.039481572806835175
1772883657397838600,8.564838623046874,11.481959342956543,1.0941181182861328,-0.3517449200153351
1772883657414443800,8.58144384765625,11.473584175109863,0.6616154313087463,-0.6753742098808289
1772883657431044900,8.598044921875,11.058429718017578,0.49232324957847595,-1.028315544128418
1772883657447657000,8.614656982421875,10.361519813537598,0.5964110493659973,-1.181456208229065
1772883657464258800,8.6312587890625,9.689735412597656,0.9433703422546387,-1.1988041400909424
1772883657480881400,8.64788134765625,9.273982048034668,1.2011969089508057,-1.0845468044281006
1772883657497482800,8.664482666015624,9.186644554138184,1.3040883541107178,-0.9541380405426025
1772883657514088000,8.681087890625,9.376275062561035,1.2233306169509888,-0.7597211599349976
1772883657530688300,8.697688232421875,9.578469276428223,1.2335001230239868,-0.5551348328590393
1772883657547302400,8.714302490234376,9.574281692504883,1.2789636850357056,-0.30628129839897156
1772883657563902700,8.73090283203125,9.334999084472656,1.3094722032546997,-0.23270200192928314
1772883657580508000,8.7475078125,9.184849739074707,1.4081761837005615,-0.22612173855304718
1772883657597113000,8.764113037109375,9.087342262268066,1.526620864868164,-0.1818545162677765
1772883657613718500,8.780718505859374,8.95095157623291,1.7102699279785156,-0.01734796352684498
1772883657630318300,8.797318359375,8.857032775878906,1.937588095664978,0.1860419660806656
1772883657646932700,8.8139326171875,8.95513916015625,2.104487419128418,0.3445664644241333
1772883657663534000,8.8305341796875,8.900702476501465,2.2133610248565674,0.40797626972198486
1772883657680139000,8.847138916015625,8.660223007202148,2.310868501663208,0.4576273262500763
1772883657696743200,8.8637431640625,8.390432357788086,2.4358935356140137,0.5940182209014893
1772883657713348600,8.8803486328125,8.294121742248535,2.548356056213379,0.786640465259552
1772883657729949200,8.89694921875,8.182256698608398,2.6943182945251465,0.9224331378936768
1772883657746563000,8.91356298828125,8.137392044067383,2.7942185401916504,0.9230313301086426
1772883657763162600,8.93016259765625,8.020143508911133,2.9030921459198,0.9439685344696045
1772883657779770000,8.94677001953125,7.87777042388916,3.0837502479553223,0.8745766878128052
1772883657796374300,8.963374267578125,7.789236068725586,3.1752755641937256,0.7417750358581543
1772883657812979500,8.9799794921875,7.874181270599365,3.2237303256988525,0.722034215927124
1772883657829568800,8.99656884765625,8.091927528381348,3.3505499362945557,0.7794619798660278
1772883657846174000,9.013174072265626,8.500502586364746,3.4845480918884277,0.7160521745681763
1772883657862781200,9.02978125,8.810373306274414,3.5503506660461426,0.6526423692703247
1772883657879386000,9.04638623046875,9.172286987304688,3.6167514324188232,0.6269195079803467
1772883657895991000,9.062990966796875,9.488140106201172,3.620340585708618,0.615553617477417
1772883657912595700,9.079595703125,9.779465675354004,3.6191442012786865,0.5665007829666138
1772883657929201400,9.096201416015624,10.136594772338867,3.47019100189209,0.529412031173706
1772883657945806600,9.112806640625,10.60678482055664,3.3655049800872803,0.4785645306110382
1772883657962414600,9.12941455078125,11.070393562316895,3.38105845451355,0.3852444589138031
1772883657979029800,9.14602978515625,11.234302520751953,3.5461630821228027,0.29431718587875366
1772883657995635500,9.162635498046875,11.076375961303711,3.7322051525115967,0.13878370821475983
1772883658012241000,9.179240966796876,10.65942668914795,3.916452407836914,-0.14416755735874176
1772883658028840700,9.1958408203125,10.36630630493164,3.8111681938171387,0.1052841991186142
1772883658045454800,9.212454833984374,10.26042366027832,3.5467612743377686,0.6921239495277405
1772883658062055400,9.229055419921876,10.220343589782715,2.9413771629333496,0.9080761671066284
1772883658078660900,9.245660888671875,10.459028244018555,2.0997018814086914,0.5557330846786499
1772883658095265300,9.262265380859375,10.331011772155762,1.384247899055481,0.11605189740657806
1772883658111871000,9.27887109375,9.862616539001465,0.9846464991569519,-0.18544375896453857
1772883658128471600,9.295471435546874,9.57487964630127,1.2550355195999146,-0.30628129839897156
1772883658145085400,9.31208544921875,9.247661590576172,1.6522440910339355,-0.14835500717163086
1772883658161686300,9.328686279296875,9.279964447021484,2.0105693340301514,-0.0023928226437419653
1772883658178290700,9.345290771484375,9.872786521911621,2.1200408935546875,0.2392822653055191
1772883658194896100,9.361896240234374,10.72702407836914,2.0889341831207275,0.4827519655227661
1772883658211501600,9.37850146484375,11.053644180297852,2.1098713874816895,0.729810893535614
1772883658228101600,9.3951015625,10.49252700805664,2.193620204925537,0.8434699773788452
1772883658244715800,9.4117158203125,9.872786521911621,2.3635106086730957,0.9200403094291687
1772883658261316900,9.42831689453125,9.695717811584473,2.403590440750122,1.031306505203247
1772883658277922000,9.444922119140625,9.946365356445312,2.324627161026001,1.1054840087890625
1772883658294551800,9.4615517578125,9.965508460998535,2.2779672145843506,0.9667003750801086
1772883658311114800,9.47811474609375,9.347561836242676,2.197807550430298,0.5868397355079651
1772883658327722800,9.49472265625,8.572287559509277,2.35872483253479,0.3487538993358612
1772883658344325600,9.51132568359375,8.15234661102295,2.4711875915527344,0.06939185410737991
1772883658360936200,9.527936279296876,7.899305820465088,2.5902304649353027,-0.17228323221206665
1772883658377538000,9.5445380859375,7.695915699005127,2.712862730026245,-0.24167509377002716
1772883658394143500,9.5611435546875,7.322037220001221,2.9306094646453857,-0.4247260093688965
1772883658410749000,9.5777490234375,7.354340553283691,2.9042885303497314,-0.6879364848136902
1772883658427353000,9.59435302734375,7.34177827835083,2.7667012214660645,-0.8231309652328491
1772883658443955200,9.610955078125,7.954938888549805,2.6602206230163574,-1.0139585733413696
