time,seconds_elapsed,z,y,x
1772883648979067000,0.14606689453125,0.342237263917923,-0.050243668258190155,-0.02626720629632473
1772883648995665400,0.16266552734375,0.38927388191223145,-0.08017606288194656,-0.02474004216492176
1772883649012273000,0.17927294921875,0.4283692538738251,-0.059864792972803116,-0.06979135423898697
1772883649028876800,0.195876708984375,0.43447789549827576,0.0074830991216003895,-0.15347988903522491
1772883649045472500,0.212472412109375,0.40301835536956787,0.0682641938328743,-0.28359419107437134
1772883649062087000,0.2290869140625,0.31123584508895874,0.10308351367712021,-0.42119157314300537
1772883649078708700,0.245708740234375,0.21563543379306793,0.12171489745378494,-0.5238169431686401
1772883649095332900,0.262332763671875,0.15974126756191254,0.17791450023651123,-0.6382014751434326
1772883649111922000,0.278921875,0.14294247329235077,0.21120665967464447,-0.7660250067710876
1772883649128510700,0.2955107421875,0.17501288652420044,0.19792033731937408,-0.8445212244987488
1772883649145124900,0.312124755859375,0.2535090744495392,0.2681698501110077,-0.7921395301818848
1772883649161730600,0.32873046875,0.3338378667831421,0.2840523421764374,-0.6940956115722656
1772883649178338600,0.345338623046875,0.3550654351711273,0.22189679741859436,-0.5772676467895508
1772883649194923800,0.361923828125,0.3066543638706207,0.11652254313230515,-0.45524731278419495
1772883649211571700,0.37857177734375,0.23121249675750732,0.02871066704392433,-0.3248275816440582
1772883649228153000,0.395153076171875,0.1843285858631134,0.029474247246980667,-0.22098049521446228
1772883649244754000,0.41175390625,0.17852537333965302,0.0731511116027832,-0.18356500566005707
1772883649261361000,0.42836083984375,0.1889100819826126,0.1915062516927719,-0.19898934662342072
1772883649277965600,0.444965576171875,0.21181751787662506,0.3724750876426697,-0.2632829248905182
1772883649294558700,0.461558837890625,0.2295326143503189,0.522595226764679,-0.3376557528972626
1772883649311180300,0.47818017578125,0.22510384023189545,0.5169447064399719,-0.3455969989299774
1772883649327763200,0.49476318359375,0.2073887437582016,0.36163222789764404,-0.2623666226863861
1772883649344374000,0.5113740234375,0.17409659922122955,0.21044307947158813,-0.09987647086381912
1772883649360986400,0.527986328125,0.13576480746269226,0.0809396430850029,0.07498370856046677
1772883649377596000,0.544595947265625,0.13454307615756989,0.004886921960860491,0.18539759516716003
1772883649394192400,0.5611923828125,0.15103642642498016,-0.059864792972803116,0.19608774781227112
1772883649410806000,0.577805908203125,0.14935655891895294,-0.1895209401845932,0.10064005106687546
1772883649427408100,0.594408203125,0.1281289905309677,-0.3452915847301483,-0.013744467869400978
1772883649444021800,0.611021728515625,0.11988230794668198,-0.40286561846733093,-0.05619960278272629
1772883649460620500,0.62762060546875,0.13377949595451355,-0.3790418803691864,-0.06215553730726242
1772883649477212000,0.6442119140625,0.14034628868103027,-0.37201693654060364,-0.1059851199388504
1772883649493808600,0.66080859375,0.10613783448934555,-0.413097620010376,-0.21380282938480377
1772883649510424300,0.67742431640625,0.04245513305068016,-0.4225660264492035,-0.3877467215061188
1772883649527027500,0.69402734375,-0.005192354787141085,-0.4219551682472229,-0.5705481171607971
1772883649543635200,0.71063525390625,-0.03039054572582245,-0.36651915311813354,-0.6835582256317139
1772883649560241000,0.727240966796875,-0.02229658141732216,-0.30222558975219727,-0.7177666425704956
1772883649576845300,0.74384521484375,0.013897184282541275,-0.21105393767356873,-0.6632469296455383
1772883649593456600,0.76045654296875,0.04948008432984352,-0.06322455406188965,-0.5203045010566711
1772883649610068700,0.77706884765625,0.07360926270484924,0.02825251780450344,-0.36560285091400146
1772883649626678000,0.793677978515625,0.0981965884566307,-0.010842857882380486,-0.26862800121307373
1772883649643252000,0.810251953125,0.11911872029304504,-0.10674870014190674,-0.27382034063339233
1772883649659887000,0.82688720703125,0.12507465481758118,-0.15073099732398987,-0.3019201457500458
1772883649676493300,0.843493408203125,0.11957687139511108,-0.12171489745378494,-0.2808452844619751
1772883649693076500,0.860076416015625,0.10735956579446793,-0.07024950534105301,-0.20097467303276062
1772883649709699600,0.876699462890625,0.10231992602348328,-0.030085112899541855,-0.11667526513338089
1772883649726287600,0.89328759765625,0.12476922571659088,0.019547687843441963,-0.041233405470848083
1772883649742906400,0.90990625,0.1563815027475357,0.05192354694008827,-0.026419922709465027
1772883649759507700,0.9265078125,0.16814066469669342,0.04230241850018501,-0.08124507963657379
1772883649776117800,0.94311767578125,0.1469130963087082,0.0074830991216003895,-0.14049901068210602
1772883649792708600,0.95970849609375,0.1160643994808197,-0.05451972410082817,-0.15913039445877075
1772883649809330700,0.97633056640625,0.08552113175392151,-0.058184914290905,-0.10399980843067169
1772883649825918500,0.99291845703125,0.08124507963657379,0.0012217304902151227,-0.012675453908741474
1772883649842570800,1.00957080078125,0.10415252298116684,0.03833179548382759,0.06062837690114975
1772883649859128300,1.02612841796875,0.12308934330940247,0.1014036312699318,0.11514809727668762
1772883649875748000,1.042748046875,0.13347405195236206,0.16065755486488342,0.17440202832221985
1772883649892342800,1.0593427734375,0.11972958594560623,0.18310685455799103,0.2600758671760559
1772883649908955100,1.075955078125,0.11881329119205475,0.17348572611808777,0.3449861407279968
1772883649925568800,1.09256884765625,0.20494529604911804,0.1647808998823166,0.35262197256088257
1772883649942175500,1.109175537109375,0.37858372926712036,0.23808473348617554,0.34406983852386475
1772883649958771700,1.125771728515625,0.575893223285675,0.2854267954826355,0.3966042697429657
1772883649975371800,1.142371826171875,0.7281513810157776,0.1414152979850769,0.48456886410713196
1772883649991966700,1.158966796875,0.8011497855186462,-0.07376197725534439,0.5642867684364319
1772883650008576300,1.175576171875,0.7560984492301941,-0.2695443034172058,0.4876231849193573
1772883650025183200,1.192183349609375,0.6122397184371948,-0.38927388191223145,0.1898263692855835
1772883650041787000,1.208786865234375,0.42348232865333557,-0.4810563921928406,-0.19562959671020508
1772883650058391000,1.22539111328125,0.26633724570274353,-0.49816060066223145,-0.4381431043148041
1772883650074996000,1.241995849609375,0.1547016203403473,-0.3358231782913208,-0.483957976102829
1772883650091603500,1.258603515625,0.15851953625679016,-0.15821409225463867,-0.29077184200286865
1772883650108221200,1.27522119140625,0.2741257846355438,-0.01114829070866108,-0.005345070734620094
1772883650124819500,1.2918193359375,0.42241331934928894,0.1368338167667389,0.24404066801071167
1772883650141431300,1.308431396484375,0.5523748993873596,0.22479841113090515,0.4158465266227722
1772883650158023400,1.3250234375,0.6884451508522034,0.32039880752563477,0.48090365529060364
1772883650174639000,1.34163916015625,0.7870998978614807,0.3617849349975586,0.38438695669174194
1772883650191229200,1.358229248046875,0.7935139536857605,0.22632557153701782,0.25992316007614136
1772883650207850000,1.37485009765625,0.7502952218055725,0.012064588256180286,0.20326541364192963
1772883650224450600,1.391450439453125,0.6731734871864319,-0.1258382350206375,0.17821992933750153
1772883650241063400,1.4080634765625,0.531147301197052,-0.28680121898651123,0.05971207842230797
1772883650257666600,1.42466650390625,0.3582724630832672,-0.4645630121231079,-0.15393804013729095
1772883650274270000,1.44127001953125,0.21334469318389893,-0.4050036668777466,-0.24358251690864563
1772883650290859500,1.457859619140625,0.15103642642498016,-0.05161811411380768,-0.1466076523065567
1772883650307466500,1.474466552734375,0.21059578657150269,0.3672827184200287,0.014813481830060482
1772883650324081400,1.491081298828125,0.3442225754261017,0.7092145681381226,0.126143679022789
1772883650340694500,1.507694580078125,0.4482223689556122,0.8471173644065857,0.15653422474861145
1772883650357281000,1.524281005859375,0.4889976382255554,0.7469354867935181,0.1547016203403473
1772883650373899500,1.5408994140625,0.4576907753944397,0.5413793325424194,0.16035212576389313
1772883650390498000,1.557498046875,0.38835757970809937,0.3222314119338989,0.16401731967926025
1772883650407112700,1.57411279296875,0.2860376536846161,0.17150041460990906,0.16569720208644867
1772883650423717000,1.590717041015625,0.17012597620487213,0.08185594528913498,0.12690725922584534
1772883650440319200,1.6073193359375,0.0959058403968811,0.0403171069920063,0.04932736977934837
1772883650456896800,1.623896728515625,0.03787364438176155,0.1313360333442688,-0.006261368747800589
1772883650473536300,1.640536376953125,0.006719517521560192,0.2701551616191864,-0.033139441162347794
1772883650490111200,1.657111328125,-0.018478672951459885,0.35155296325683594,-0.04566217586398125
1772883650506729700,1.673729736328125,-0.06154467165470123,0.3188716471195221,-0.03420845419168472
1772883650523333400,1.69033349609375,-0.12400564551353455,0.2099849283695221,0.005803219974040985
1772883650539937800,1.706937744140625,-0.1992947906255722,0.04963280260562897,0.022602014243602753
1772883650556544300,1.723544189453125,-0.2542726695537567,-0.054367005825042725,0.029168816283345222
1772883650573164300,1.740164306640625,-0.31871894001960754,-0.07437284290790558,-0.00015271631127689034
1772883650589734000,1.75673388671875,-0.3998112976551056,-0.024587325751781464,-0.06414084881544113
1772883650606354000,1.77335400390625,-0.4807509481906891,0.022449297830462456,-0.12079860270023346
1772883650622978600,1.789978515625,-0.527634859085083,-0.01878410577774048,-0.16752979159355164
1772883650639584300,1.806584228515625,-0.5406157374382019,-0.058184914290905,-0.1540907621383667
1772883650656192500,1.823192626953125,-0.5210680365562439,-0.020463986322283745,-0.08735372871160507
1772883650672790800,1.839790771484375,-0.4931209683418274,0.07101308554410934,0.0328340083360672
1772883650689392400,1.856392333984375,-0.46761733293533325,0.14492778480052948,0.10812314599752426
1772883650706000600,1.873000732421875,-0.4216497242450714,0.14126259088516235,0.08536841720342636
1772883650722604500,1.8896044921875,-0.4112650156021118,0.00931569468230009,-0.006261368747800589
1772883650739216100,1.906216064453125,-0.4908302128314972,-0.3263547718524933,-0.154396191239357
1772883650755810600,1.922810546875,-0.6105598211288452,-0.6407976150512695,-0.2889392673969269
1772883650772421600,1.939421630859375,-0.693026602268219,-0.6956228017807007,-0.35964691638946533
1772883650789007000,1.956007080078125,-0.7318165898323059,-0.46334129571914673,-0.34666603803634644
1772883650805632800,1.9726328125,-0.6635523438453674,-0.00045814894838258624,-0.2822197377681732
1772883650822235400,1.9892353515625,-0.4964807331562042,0.47708576917648315,-0.18967366218566895
1772883650838831600,2.00583154296875,-0.3029891550540924,0.7443392872810364,-0.11331550031900406
1772883650855421200,2.022421142578125,-0.17302757501602173,0.6291912198066711,-0.04230241850018501
1772883650872059100,2.03905908203125,-0.11453723162412643,0.37110063433647156,0.08429940044879913
1772883650888637200,2.05563720703125,-0.08964447677135468,0.1391245573759079,0.25671613216400146
1772883650905266400,2.072266357421875,-0.07910704612731934,-0.10384709388017654,0.40133845806121826
1772883650921850400,2.088850341796875,-0.10094548016786575,-0.3497203588485718,0.46211954951286316
1772883650938481400,2.1054814453125,-0.16142113506793976,-0.4558582007884979,0.4311181604862213
1772883650955063300,2.122063232421875,-0.21533000469207764,-0.4309654235839844,0.31520646810531616
1772883650971669500,2.13866943359375,-0.2727513313293457,-0.26939156651496887,0.2122756689786911
1772883650988256800,2.1552568359375,-0.32559117674827576,-0.04199698567390442,0.1690569519996643
1772883651004879600,2.171879638671875,-0.32650747895240784,0.21868975460529327,0.2002110779285431
1772883651021486800,2.18848681640625,-0.2854267954826355,0.39874228835105896,0.23319780826568604
1772883651038095400,2.205095458984375,-0.22479841113090515,0.3995058834552765,0.21365012228488922
1772883651054694700,2.221694580078125,-0.17440202832221985,0.3072652220726013,0.1488984078168869
1772883651071318500,2.238318603515625,-0.1508837193250656,0.19807305932044983,0.04535674303770065
1772883651087908600,2.25490869140625,-0.14996741712093353,0.05360342562198639,-0.06475171446800232
1772883651104511200,2.27151123046875,-0.16035212576389313,-0.06658431142568588,-0.14782938361167908
1772883651121127200,2.288127197265625,-0.15256360173225403,-0.10842858254909515,-0.18478673696517944
1772883651137736700,2.30473681640625,-0.09162978827953339,-0.09178250283002853,-0.19104810059070587
1772883651154326800,2.321326904296875,-0.016798794269561768,-0.1010981947183609,-0.21288654208183289
1772883651170954800,2.337954833984375,0.06490442901849747,-0.09773843735456467,-0.2041817009449005
1772883651187540200,2.354540283203125,0.13179416954517365,-0.1010981947183609,-0.17180584371089935
1772883651204162600,2.37116259765625,0.164170041680336,-0.1635591685771942,-0.13316862285137177
1772883651220751000,2.387751220703125,0.17211128771305084,-0.244804248213768,-0.11942415684461594
1772883651237366000,2.404365966796875,0.17852537333965302,-0.23380866646766663,-0.10965031385421753
1772883651253957400,2.420957275390625,0.1992947906255722,-0.14676037430763245,-0.11224649101495743
1772883651270564900,2.43756494140625,0.22082778811454773,-0.10552696883678436,-0.10033461451530457
1772883651287158300,2.454158203125,0.2292271852493286,-0.11728613078594208,-0.050243668258190155
1772883651303784000,2.470783935546875,0.2344195395708084,-0.12079860270023346,-0.018478672951459885
1772883651320398000,2.487398193359375,0.2477058619260788,-0.10766500234603882,-0.014508049935102463
1772883651336988700,2.50398876953125,0.25335636734962463,-0.06887505948543549,-0.02428189292550087
1772883651353584600,2.520584716796875,0.25992316007614136,-0.02428189292550087,-0.031001411378383636
1772883651370190300,2.5371904296875,0.2776382565498352,0.030085112899541855,-0.02825251780450344
1772883651386815500,2.5538154296875,0.3017674386501312,0.09239336848258972,-0.005039638374000788
1772883651403415300,2.570415283203125,0.35445454716682434,0.11804971098899841,0
1772883651420037600,2.58703759765625,0.44516804814338684,0.17256943881511688,-0.04993823543190956
1772883651436629000,2.60362890625,0.4738787114620209,0.06276640295982361,-0.24953845143318176
1772883651453216000,2.620216064453125,0.34574973583221436,-0.24068090319633484,-0.5340489149093628
1772883651469823200,2.6368232421875,0.11713340878486633,-0.5685628056526184,-0.7205155491828918
1772883651486428400,2.653428466796875,-0.0754418596625328,-0.6841690540313721,-0.7302893996238708
1772883651503032300,2.6700322265625,-0.11194105446338654,-0.4781547784805298,-0.5795583724975586
1772883651519638800,2.686638671875,-0.005803219974040985,-0.1742493063211441,-0.3556762933731079
1772883651536243700,2.70324365234375,0.2102903574705124,0.14156801998615265,-0.12232576310634613
1772883651552863700,2.71986376953125,0.4378376603126526,0.3933972120285034,0.09941831976175308
1772883651569464800,2.73646484375,0.6212499737739563,0.42531493306159973,0.251676470041275
1772883651586071000,2.753071044921875,0.7070765495300293,0.3810271918773651,0.30894508957862854
1772883651602676500,2.769676513671875,0.7044803500175476,0.24938572943210602,0.24724771082401276
1772883651619281200,2.78628125,0.6801984310150146,0.04046982154250145,0.13836097717285156
1772883651635875800,2.802875732421875,0.6461427211761475,-0.12324206531047821,0.04505131021142006
1772883651652514000,2.81951416015625,0.5913175344467163,-0.24190263450145721,-0.05253441259264946
1772883651669082600,2.83608251953125,0.4938845634460449,-0.40943244099617004,-0.2064724564552307
1772883651685687300,2.852687255859375,0.35353827476501465,-0.6430884003639221,-0.39446622133255005
1772883651702309000,2.86930908203125,0.2171625941991806,-0.6953173875808716,-0.5207626223564148
1772883651718909700,2.88590966796875,0.1293507218360901,-0.42577308416366577,-0.5450445413589478
1772883651735512800,2.902512939453125,0.14538592100143433,0.03833179548382759,-0.4986187517642975
1772883651752103700,2.919103759765625,0.2643519341945648,0.45982882380485535,-0.39813143014907837
1772883651768719000,2.935718994140625,0.40424007177352905,0.7269296646118164,-0.2825251817703247
1772883651785333000,2.9523330078125,0.513126790523529,0.8382598161697388,-0.22296582162380219
1772883651801936100,2.96893603515625,0.555429220199585,0.8319984674453735,-0.20051652193069458
1772883651818559000,2.98555908203125,0.5458080768585205,0.7800748944282532,-0.1771509200334549
1772883651835152000,3.00215185546875,0.5467243790626526,0.6882924437522888,-0.12263119965791702
1772883651851736800,3.01873681640625,0.5792529582977295,0.5613851547241211,0.010537425056099892
1772883651868342800,3.0353427734375,0.6536257863044739,0.4651738703250885,0.16523905098438263
1772883651884953300,3.051953369140625,0.755793035030365,0.4079052805900574,0.2562579810619354
1772883651901571600,3.068571533203125,0.841008722782135,0.408974289894104,0.2831360399723053
1772883651918172200,3.085172119140625,0.8657487630844116,0.42088615894317627,0.266184538602829
1772883651934781400,3.101781494140625,0.8136724829673767,0.403781920671463,0.2142609804868698
1772883651951374600,3.11837451171875,0.6829473376274109,0.3222314119338989,0.1713477075099945
1772883651967959300,3.134959228515625,0.4963280260562897,0.20326541364192963,0.17608191072940826
1772883651984567800,3.15156787109375,0.26450464129447937,0.07299839705228806,0.1999056488275528
1772883652001185300,3.168185302734375,0.0007635815418325365,0.007177666760981083,0.22770002484321594
1772883652017788200,3.1847880859375,-0.2915354371070862,0.016035212203860283,0.2474004179239273
1772883652034396200,3.201396240234375,-0.5725334286689758,0.00427605677396059,0.2538145184516907
1772883652051021300,3.218021240234375,-0.7855727076530457,-0.01618792861700058,0.24892759323120117
1772883652067619800,3.234619873046875,-0.8790351152420044,-0.03405573591589928,0.2321287989616394
1772883652084235800,3.25123583984375,-0.9043859839439392,-0.12965615093708038,0.1843285858631134
1772883652100830500,3.26783056640625,-0.9014843702316284,-0.2817615866661072,0.05864306539297104
1772883652117428700,3.2844287109375,-0.8623890280723572,-0.3831652104854584,-0.13973543047904968
1772883652134047000,3.301046875,-0.813825249671936,-0.4031710624694824,-0.3599523603916168
1772883652150629000,3.317629150390625,-0.8378016948699951,-0.45402559638023376,-0.5908594131469727
1772883652167234300,3.334234375,-0.9587529897689819,-0.5803219676017761,-0.7935139536857605
1772883652183851800,3.350851806640625,-1.10139000415802,-0.6669121384620667,-0.8150469660758972
1772883652200444400,3.3674443359375,-1.1681270599365234,-0.6528622508049011,-0.6137668490409851
1772883652217046800,3.384046875,-1.123533844947815,-0.4579962193965912,-0.2860376536846161
1772883652233659100,3.4006591796875,-0.9537133574485779,-0.12690725922584534,0.05497787147760391
1772883652250264300,3.417264404296875,-0.6826419234275818,0.22663100063800812,0.34116822481155396
1772883652266881500,3.433881591796875,-0.3393356502056122,0.43707409501075745,0.5119050741195679
1772883652283491800,3.450491943359375,0.024434609338641167,0.4311181604862213,0.6149885654449463
1772883652300086800,3.467086669921875,0.26190847158432007,0.27290403842926025,0.7082982659339905
1772883652316692700,3.483692626953125,0.33246341347694397,-0.03145955875515938,0.7797694802284241
1772883652333305300,3.500305419921875,0.29016098380088806,-0.323147714138031,0.8442157506942749
1772883652349917400,3.51691748046875,0.15546520054340363,-0.49556443095207214,0.8970556259155273
1772883652366512000,3.53351220703125,-0.04902193695306778,-0.5432119369506836,0.8701775670051575
1772883652383116300,3.5501162109375,-0.28848111629486084,-0.6383541822433472,0.6913467645645142
1772883652399722200,3.56672216796875,-0.5574145317077637,-0.7211264371871948,0.422871470451355
1772883652416327400,3.583327392578125,-0.7736608386039734,-0.7305948138237,0.1385136991739273
1772883652432902100,3.599902099609375,-0.8704829812049866,-0.5971207618713379,-0.08246681094169617
1772883652449523500,3.6165234375,-0.8904888033866882,-0.34025195240974426,-0.22250767052173615
1772883652466129000,3.63312890625,-0.8428413271903992,-0.08811730891466141,-0.32100969552993774
1772883652482733600,3.649733642578125,-0.7486153841018677,0.13866640627384186,-0.36911532282829285
1772883652499335200,3.666335205078125,-0.6270532011985779,0.327729195356369,-0.403323769569397
1772883652515942100,3.682942138671875,-0.5386304259300232,0.37400224804878235,-0.44745880365371704
1772883652532554500,3.699554443359375,-0.4983133375644684,0.25274550914764404,-0.4657847583293915
1772883652549150200,3.716150146484375,-0.44623705744743347,0.1560760736465454,-0.45952337980270386
1772883652565773300,3.732773193359375,-0.3854559659957886,-0.013439035043120384,-0.4856378734111786
1772883652582373000,3.749373046875,-0.31749722361564636,-0.09422596544027328,-0.4879286289215088
1772883652598987000,3.765987060546875,-0.2483167201280594,-0.0861319974064827,-0.48197266459465027
1772883652615589600,3.782589599609375,-0.18417587876319885,-0.10002918541431427,-0.5056437253952026
1772883652632191700,3.799191650390625,-0.14355333149433136,-0.04703662544488907,-0.5187773108482361
1772883652648767200,3.815767333984375,-0.1212567538022995,-0.017409659922122955,-0.5342016816139221
1772883652665403000,3.83240283203125,-0.10461067408323288,-0.02122756652534008,-0.5306891798973083
1772883652682008000,3.849008056640625,-0.08460483700037003,-0.04886921867728233,-0.5035057067871094
1772883652698617900,3.865617919921875,-0.05711590126156807,-0.049785517156124115,-0.42378777265548706
1772883652715214300,3.88221435546875,-0.01725694350898266,-0.03436116874217987,-0.32818734645843506
1772883652731815000,3.89881494140625,0.014355333521962166,-0.08307767659425735,-0.23716843128204346
1772883652748412000,3.915411865234375,0.02367102913558483,-0.1661553531885147,-0.10384709388017654
1772883652765033200,3.932033203125,0.04917465150356293,-0.22617286443710327,0.0884227454662323
1772883652781639200,3.94863916015625,0.08460483700037003,-0.2658790946006775,0.2863430976867676
1772883652798248400,3.96524853515625,0.12431107461452484,-0.22327125072479248,0.44058656692504883
1772883652814840800,3.9818408203125,0.1921171247959137,-0.15347988903522491,0.5477933883666992
1772883652831458300,3.998458251953125,0.24755313992500305,-0.303600013256073,0.6737843751907349
1772883652848043500,4.01504345703125,0.32910364866256714,-0.6681338548660278,0.8729264140129089
1772883652864664000,4.0316640625,0.45295658707618713,-0.9731083512306213,1.0769554376602173
1772883652881260800,4.0482607421875,0.5868887901306152,-1.1377365589141846,1.1829406023025513
1772883652897849300,4.064849365234375,0.6659958362579346,-1.0876455307006836,1.2060006856918335
1772883652914472400,4.081472412109375,0.6747006773948669,-0.8158105611801147,1.0977247953414917
1772883652931072800,4.09807275390625,0.6444628238677979,-0.4050036668777466,0.7541131377220154
1772883652947675600,4.114675537109375,0.5552765130996704,-0.07070764899253845,0.26022860407829285
1772883652964281300,4.13128125,0.370947927236557,0.1388191282749176,-0.0705549344420433
1772883652980886000,4.147885986328125,0.1768454909324646,0.22052235901355743,-0.098502017557621
1772883652997494500,4.16449462890625,0.08735372871160507,0.3686571717262268,0.056810468435287476
1772883653014089700,4.18108984375,0.10247264802455902,0.5632177591323853,0.2554943859577179
1772883653030721500,4.197721435546875,0.1915062516927719,0.5558874011039734,0.3497203588485718
1772883653047320300,4.2143203125,0.28328874707221985,0.3094032406806946,0.31093040108680725
1772883653063925000,4.230925048828125,0.3381139039993286,0.048105638474226,0.25473082065582275
1772883653080528100,4.247528076171875,0.3643811047077179,-0.04948008432984352,0.22571471333503723
1772883653097136000,4.26413623046875,0.384845107793808,-0.16035212576389313,0.1485929638147354
1772883653113733600,4.280733642578125,0.3517056703567505,-0.34804046154022217,0.06001751124858856
1772883653130356000,4.29735595703125,0.28466320037841797,-0.4424191415309906,0.02871066704392433
1772883653146913300,4.313913330078125,0.242513507604599,-0.3439171314239502,0.04993823543190956
1772883653163556400,4.330556396484375,0.24984388053417206,-0.08032877743244171,0.12018773704767227
1772883653180156700,4.34715673828125,0.3013092875480652,0.20754146575927734,0.1892155110836029
1772883653196774400,4.3637744140625,0.36010506749153137,0.36483925580978394,0.23151792585849762
1772883653213362700,4.38036279296875,0.35811975598335266,0.37690386176109314,0.22815817594528198
1772883653229979600,4.396979736328125,0.30405816435813904,0.32818734645843506,0.19608774781227112
1772883653246570000,4.413570068359375,0.22632557153701782,0.26282477378845215,0.17577648162841797
1772883653263183600,4.43018359375,0.15851953625679016,0.20631973445415497,0.1898263692855835
1772883653279787500,4.44678759765625,0.12003502249717712,0.13286319375038147,0.2070833146572113
1772883653296396500,4.463396484375,0.1007927656173706,0.1014036312699318,0.2076941877603531
1772883653313005000,4.480005126953125,0.08338310569524765,0.11316278576850891,0.2018909603357315
1772883653329606700,4.496606689453125,0.059406645596027374,0.14034628868103027,0.21074850857257843
1772883653346195000,4.51319482421875,0.020005837082862854,0.16691893339157104,0.21594086289405823
1772883653362799400,4.52979931640625,-0.005803219974040985,0.18784105777740479,0.19333885610103607
1772883653379417600,4.54641748046875,-0.03176499158143997,0.20036379992961884,0.12568552792072296
1772883653396030700,4.56303076171875,-0.06352998316287994,0.1488984078168869,0.038026362657547
1772883653412615200,4.579615234375,-0.10949759185314178,0.11331550031900406,0.0006108652451075613
1772883653429223400,4.596223388671875,-0.1560760736465454,0.12018773704767227,-0.01191187184303999
1772883653445828000,4.612828125,-0.20372356474399567,0.07666359096765518,-0.059864792972803116
1772883653462433300,4.629433349609375,-0.26404649019241333,-0.06704246252775192,-0.17241671681404114
1772883653479039000,4.6460390625,-0.3602577745914459,-0.25534167885780334,-0.3107776939868927
1772883653495647000,4.66264697265625,-0.46792277693748474,-0.4106541574001312,-0.43615779280662537
1772883653512242700,4.67924267578125,-0.5340489149093628,-0.4586070775985718,-0.45723262429237366
1772883653528873700,4.695873779296875,-0.5262604355812073,-0.33628132939338684,-0.3222314119338989
1772883653545455900,4.712455810546875,-0.4196644127368927,-0.1281289905309677,-0.09285151958465576
1772883653562077700,4.72907763671875,-0.3055853247642517,-0.023365596309304237,0.09422596544027328
1772883653578681900,4.745681884765625,-0.22617286443710327,0.08521570265293121,0.20525072515010834
1772883653595292000,4.7622919921875,-0.20097467303276062,0.16310101747512817,0.2099849283695221
1772883653611893000,4.77889306640625,-0.23075434565544128,0.16325373947620392,0.08933904021978378
1772883653628495000,4.7954951171875,-0.294895201921463,0.18005253374576569,-0.06719517707824707
1772883653645088500,4.812088623046875,-0.3891211748123169,0.13209961354732513,-0.2041817009449005
1772883653661707800,4.828707763671875,-0.4674646258354187,0.04108068719506264,-0.2716823220252991
1772883653678310700,4.845310546875,-0.5002986192703247,0.005955935921519995,-0.22449298202991486
1772883653694922000,4.861921875,-0.4795292317867279,0.036651913076639175,-0.08964447677135468
1772883653711523000,4.878523193359375,-0.3982841372489929,0.18555031716823578,0.06933320313692093
1772883653728128000,4.8951279296875,-0.28038713335990906,0.3862195611000061,0.182648703455925
1772883653744727300,4.911727294921875,-0.17821992933750153,0.4495968222618103,0.23686300218105316
1772883653761338600,4.928338623046875,-0.11621711403131485,0.3136793076992035,0.26862800121307373
1772883653777939700,4.944939697265625,-0.10980302840471268,0.04993823543190956,0.32070425152778625
1772883653794553000,4.961552978515625,-0.15012013912200928,-0.1748601794242859,0.41111230850219727
1772883653811154000,4.97815380859375,-0.20845776796340942,-0.25732699036598206,0.49098294973373413
1772883653827758800,4.9947587890625,-0.2638937830924988,-0.22907446324825287,0.47708576917648315
1772883653844338400,5.01133837890625,-0.33826664090156555,-0.22892175614833832,0.3413209617137909
1772883653860971300,5.02797119140625,-0.4662429094314575,-0.3006984293460846,0.08857546001672745
1772883653877574700,5.04457470703125,-0.6352998614311218,-0.36880987882614136,-0.25763240456581116
1772883653894184000,5.061183837890625,-0.7921395301818848,-0.4460843503475189,-0.5461135506629944
1772883653910762500,5.077762451171875,-0.868803083896637,-0.3692680299282074,-0.6467535495758057
1772883653927375600,5.094375732421875,-0.8469646573066711,-0.12721268832683563,-0.6149885654449463
1772883653943967700,5.1109677734375,-0.745408296585083,0.09346238523721695,-0.5331326723098755
1772883653960586200,5.127586181640625,-0.6116288304328918,0.2096794992685318,-0.44028112292289734
1772883653977191200,5.144191162109375,-0.4818199574947357,0.192422553896904,-0.38469240069389343
1772883653993796400,5.16079638671875,-0.35964691638946533,0.08597928285598755,-0.37598755955696106
1772883654010409700,5.17740966796875,-0.28069257736206055,-0.11270463466644287,-0.37751471996307373
1772883654027019800,5.194019775390625,-0.22479841113090515,-0.2952006161212921,-0.33536502718925476
1772883654043621400,5.210621337890625,-0.192422553896904,-0.43417248129844666,-0.26251932978630066
1772883654060230000,5.22722998046875,-0.16859880089759827,-0.4769330322742462,-0.20051652193069458
1772883654076835300,5.24383544921875,-0.14645494520664215,-0.45494189858436584,-0.17791450023651123
1772883654093440800,5.260440673828125,-0.11728613078594208,-0.3900374472141266,-0.18631389737129211
1772883654110045200,5.277045166015625,-0.08246681094169617,-0.24495697021484375,-0.20570887625217438
1772883654126653400,5.2936533203125,-0.04245513305068016,-0.13179416954517365,-0.24526239931583405
1772883654143266300,5.310266357421875,-0.00809396430850029,-0.02733621932566166,-0.2611449062824249
1772883654159860700,5.32686083984375,0.022907447069883347,0.09560041129589081,-0.24297164380550385
1772883654176471600,5.343471435546875,0.06704246252775192,0.2119702398777008,-0.2301434874534607
1772883654193065000,5.36006494140625,0.11484266817569733,0.3165809214115143,-0.24083362519741058
1772883654209676300,5.37667626953125,0.14737124741077423,0.37659841775894165,-0.2883284091949463
1772883654226267100,5.39326708984375,0.15424346923828125,0.31093040108680725,-0.3819434940814972
1772883654242869200,5.409869140625,0.10018189996480942,0.1310305893421173,-0.4980078935623169
1772883654259490800,5.42649072265625,0.007941247895359993,-0.10155634582042694,-0.5148066878318787
1772883654276089600,5.443089599609375,-0.06582073122262955,-0.18478673696517944,-0.3208569586277008
1772883654292691500,5.45969140625,-0.039706241339445114,-0.08445212244987488,0.0006108652451075613
1772883654309292300,5.476292236328125,0.07024950534105301,0.05497787147760391,0.318566232919693
1772883654325884700,5.492884765625,0.18906278908252716,0.1319468915462494,0.5473352670669556
1772883654342503000,5.5095029296875,0.2926044464111328,0.24877487123012543,0.6805039048194885
1772883654359108400,5.5261083984375,0.34773504734039307,0.3517056703567505,0.6950119137763977
1772883654375709700,5.542709716796875,0.32330042123794556,0.422871470451355,0.612850546836853
1772883654392321500,5.559321533203125,0.25335636734962463,0.50335294008255,0.5021312236785889
1772883654408923600,5.575923583984375,0.14508049190044403,0.44577890634536743,0.3585779070854187
1772883654425528300,5.5925283203125,0.078343465924263,0.26893341541290283,0.2571742534637451
1772883654442121700,5.609121826171875,0.06352998316287994,0.15057829022407532,0.2571742534637451
1772883654458738700,5.62573876953125,0.10506882518529892,0.11682797968387604,0.337044894695282
1772883654475344400,5.642344482421875,0.21365012228488922,0.20754146575927734,0.4424191415309906
1772883654491948500,5.658948486328125,0.3698789179325104,0.35445454716682434,0.5342016816139221
1772883654508570400,5.6755703125,0.5424483418464661,0.5167919993400574,0.5639813542366028
1772883654525175300,5.69217529296875,0.6959282159805298,0.5218316316604614,0.47082439064979553
1772883654541749800,5.708749755859375,0.794277548789978,0.3182607889175415,0.2932153046131134
1772883654558382600,5.725382568359375,0.8297077417373657,0.03329215571284294,0.13927727937698364
1772883654574991000,5.7419912109375,0.8300131559371948,-0.20723603665828705,0.055283304303884506
1772883654591589400,5.75858935546875,0.7652614116668701,-0.38347065448760986,-0.014508049935102463
1772883654608198100,5.7751982421875,0.6592763066291809,-0.502436637878418,-0.11621711403131485
1772883654624804400,5.791804443359375,0.5474879741668701,-0.48640143871307373,-0.2246456891298294
1772883654641423600,5.808423583984375,0.4807509481906891,-0.35033121705055237,-0.2817615866661072
1772883654658016000,5.82501611328125,0.46105054020881653,-0.11270463466644287,-0.24846944212913513
1772883654674612200,5.8416123046875,0.460897833108902,0.09040805697441101,-0.1869247704744339
1772883654691227400,5.858227294921875,0.4334088861942291,0.11224649101495743,-0.09392052888870239
1772883654707828200,5.874828125,0.3623957931995392,-0.00733038317412138,0.04841107130050659
1772883654724420900,5.8914208984375,0.29077184200286865,-0.18219055235385895,0.16661348938941956
1772883654741031200,5.90803125,0.22357667982578278,-0.23167064785957336,0.22831088304519653
1772883654757644500,5.92464453125,0.1498146951198578,-0.19562959671020508,0.23075434565544128
1772883654774244900,5.941244873046875,0.04917465150356293,-0.19685132801532745,0.21181751787662506
1772883654790856000,5.95785595703125,-0.07849618047475815,-0.21960605680942535,0.22067506611347198
1772883654807459300,5.974459228515625,-0.19013181328773499,-0.22388210892677307,0.2756529450416565
1772883654824074000,5.991073974609375,-0.2535090744495392,-0.17898350954055786,0.3654501438140869
1772883654840694800,6.00769482421875,-0.266642689704895,-0.08659014850854874,0.47280970215797424
1772883654857274600,6.024274658203125,-0.24678955972194672,-0.08002334833145142,0.5523748993873596
1772883654873876200,6.040876220703125,-0.23777928948402405,-0.18616119027137756,0.608421802520752
1772883654890471000,6.057470947265625,-0.2554943859577179,-0.2669481039047241,0.5894849896430969
1772883654907075600,6.07407568359375,-0.2742784917354584,-0.29397889971733093,0.5051855444908142
1772883654923682800,6.090682861328125,-0.3029891550540924,-0.2967278063297272,0.39553526043891907
1772883654940273000,6.10727294921875,-0.34376442432403564,-0.2252565622329712,0.3280346393585205
1772883654956891400,6.123891357421875,-0.4072943925857544,-0.17501288652420044,0.2376265823841095
1772883654973495800,6.140495849609375,-0.4847215712070465,-0.24327708780765533,0.09147707372903824
1772883654990101200,6.157101318359375,-0.5413793325424194,-0.2562579810619354,-0.034666601568460464
1772883655006723600,6.1737236328125,-0.5464189648628235,-0.18631389737129211,-0.1085812970995903
1772883655023340000,6.190340087890625,-0.5012149214744568,-0.08552113175392151,-0.17577648162841797
1772883655039917800,6.206917724609375,-0.4050036668777466,0.10903944820165634,-0.204487144947052
1772883655056534800,6.22353466796875,-0.34315356612205505,0.28298333287239075,-0.22281309962272644
1772883655073140500,6.240140380859375,-0.32986724376678467,0.23228150606155396,-0.3020728528499603
1772883655089745200,6.2567451171875,-0.3723223805427551,0.04948008432984352,-0.41722095012664795
1772883655106350300,6.273350341796875,-0.4309654235839844,-0.11591167747974396,-0.5364924073219299
1772883655122966800,6.289966796875,-0.42791110277175903,-0.09208793938159943,-0.5448917746543884
1772883655139538700,6.30653857421875,-0.38377609848976135,0.0981965884566307,-0.4161519408226013
1772883655156165600,6.32316552734375,-0.28298333287239075,0.2721404731273651,-0.23976461589336395
1772883655172764400,6.339764404296875,-0.1518000066280365,0.38637226819992065,-0.06612616032361984
1772883655189381600,6.356381591796875,-0.03985895588994026,0.36224308609962463,0.06490442901849747
1772883655205981700,6.372981689453125,0.03787364438176155,0.1748601794242859,0.18967366218566895
1772883655222587000,6.3895869140625,0.06643159687519073,-0.05406157299876213,0.31413745880126953
1772883655239174100,6.406174072265625,0.04398229718208313,-0.22281309962272644,0.3903428912162781
1772883655255796000,6.4227958984375,-0.020616702735424042,-0.26572638750076294,0.41920626163482666
1772883655272396800,6.439396728515625,-0.11026117950677872,-0.23289237916469574,0.3315471112728119
1772883655289012000,6.456011962890625,-0.21120665967464447,-0.2428189367055893,0.10506882518529892
1772883655305611300,6.472611328125,-0.30573806166648865,-0.28787025809288025,-0.2015855312347412
1772883655322213000,6.489213134765625,-0.34147366881370544,-0.20799961686134338,-0.4309654235839844
1772883655338832600,6.50583251953125,-0.3263547718524933,0.05513058975338936,-0.5187773108482361
1772883655355420000,6.522419921875,-0.24938572943210602,0.2993239760398865,-0.5206099152565002
1772883655372012800,6.5390126953125,-0.1514945775270462,0.413097620010376,-0.4531092941761017
1772883655388612900,6.55561279296875,-0.04214970022439957,0.40301835536956787,-0.32910364866256714
1772883655405215200,6.57221533203125,0.07971791177988052,0.3020728528499603,-0.20723603665828705
1772883655421833500,6.58883349609375,0.19746218621730804,0.1797471046447754,-0.14446963369846344
1772883655438438400,6.6054384765625,0.2874121069908142,0.04260785132646561,-0.1589776873588562
1772883655455043600,6.622043701171875,0.3116939961910248,-0.11484266817569733,-0.19257527589797974
1772883655471651000,6.638651123046875,0.2785545587539673,-0.22815817594528198,-0.18219055235385895
1772883655488254200,6.655254150390625,0.19028452038764954,-0.1963931769132614,-0.1108720451593399
1772883655504871400,6.671871337890625,0.08689557760953903,-0.09315694868564606,-0.05467243865132332
1772883655521481500,6.6884814453125,0.032528575509786606,-0.04489859566092491,-0.06352998316287994
1772883655538079000,6.705078857421875,0.008399397134780884,-0.0507018156349659,-0.11621711403131485
1772883655554692000,6.721692138671875,-0.004734205547720194,-0.0887281745672226,-0.17150041460990906
1772883655571293000,6.73829296875,-0.00045814894838258624,-0.11301007121801376,-0.23900102078914642
1772883655587898400,6.7548984375,0.03573561832308769,-0.0933096632361412,-0.29657506942749023
1772883655604502800,6.771502685546875,0.06963863968849182,-0.05345070734620094,-0.3066543638706207
1772883655621108700,6.788108642578125,0.10735956579446793,-0.03130684420466423,-0.28680121898651123
1772883655637722600,6.80472265625,0.12767083942890167,-0.034666601568460464,-0.22082778811454773
1772883655654322700,6.82132275390625,0.1469130963087082,-0.01160643994808197,-0.14782938361167908
1772883655670919700,6.837919677734375,0.20036379992961884,0.0039706239476799965,-0.144622340798378
1772883655687533300,6.854533203125,0.22418753802776337,-0.04596760869026184,-0.19043724238872528
1772883655704133000,6.871133056640625,0.19914206862449646,-0.1472185254096985,-0.21853704750537872
1772883655720739000,6.887739013671875,0.13576480746269226,-0.26404649019241333,-0.16722436249256134
1772883655737343000,6.904343017578125,0.0503963828086853,-0.3061962127685547,-0.08338310569524765
1772883655753949700,6.92094970703125,-0.0039706239476799965,-0.15317445993423462,-0.013133603148162365
1772883655770547700,6.937547607421875,-0.02168571576476097,0.11407908797264099,-0.011453723534941673
1772883655787165400,6.95416552734375,-0.014508049935102463,0.26145032048225403,-0.062460970133543015
1772883655803764200,6.97076416015625,0.04795292019844055,0.313373863697052,-0.09437867999076843
1772883655820369400,6.987369384765625,0.13225232064723969,0.3260493278503418,-0.07895433157682419
1772883655836972500,7.00397265625,0.19654589891433716,0.3407101035118103,-0.06368270516395569
1772883655853583000,7.0205830078125,0.23319780826568604,0.3039054572582245,-0.1111774742603302
1772883655870163200,7.0371630859375,0.20952677726745605,0.1333213448524475,-0.22250767052173615
1772883655886778600,7.053778564453125,0.11957687139511108,-0.23594669997692108,-0.3364340364933014
1772883655903380500,7.07038037109375,0.02519819140434265,-0.48227810859680176,-0.32268956303596497
1772883655919986200,7.086986083984375,-0.039095375686883926,-0.41630467772483826,-0.12599095702171326
1772883655936591000,7.103591064453125,0.022449297830462456,-0.18127426505088806,0.17272214591503143
1772883655953196000,7.120196044921875,0.20036379992961884,0.16798794269561768,0.4277583956718445
1772883655969801200,7.13680126953125,0.42928555607795715,0.4124867618083954,0.5161811113357544
1772883655986410000,7.153409912109375,0.6047565937042236,0.4331034719944,0.4538728892803192
1772883656003025700,7.170025634765625,0.6837109327316284,0.2600758671760559,0.3094032406806946
1772883656019630800,7.186630859375,0.6747006773948669,0.029474247246980667,0.1788308024406433
1772883656036232400,7.203232421875,0.645684540271759,-0.1036943718791008,0.11148291081190109
1772883656052812800,7.219812744140625,0.5946773290634155,-0.13790282607078552,0.05513058975338936
1772883656069449700,7.23644970703125,0.5375614166259766,-0.2002110779285431,-0.04489859566092491
1772883656086047200,7.253047119140625,0.50335294008255,-0.20601430535316467,-0.14905111491680145
1772883656102655500,7.269655517578125,0.5167919993400574,-0.10797043144702911,-0.21563543379306793
1772883656119260200,7.28626025390625,0.5965099334716797,0.08597928285598755,-0.21609358489513397
1772883656135865900,7.302865966796875,0.741284966468811,0.31780263781547546,-0.17180584371089935
1772883656152466700,7.319466796875,0.8761335015296936,0.44577890634536743,-0.09392052888870239
1772883656169077200,7.3360771484375,0.9329439401626587,0.3865249752998352,0.001527163083665073
1772883656185684000,7.35268408203125,0.9318749308586121,0.2102903574705124,0.0731511116027832
1772883656202286300,7.369286376953125,0.9294314980506897,0.04535674303770065,0.09957103431224823
1772883656218891000,7.38589111328125,0.9301950335502625,-0.028405234217643738,0.08139779418706894
1772883656235497700,7.402497802734375,0.8878926634788513,-0.017562376335263252,0.01038470957428217
1772883656252100400,7.419100341796875,0.7945829629898071,0.020616702735424042,-0.07590000331401825
1772883656268709400,7.43570947265625,0.6620252132415771,0.009926560334861279,-0.10919216275215149
1772883656285308400,7.452308349609375,0.5268712639808655,-0.031612277030944824,-0.08567385375499725
1772883656301916200,7.468916259765625,0.4205807149410248,-0.05619960278272629,-0.035124752670526505
1772883656318521600,7.485521484375,0.33169981837272644,-0.06185010448098183,-0.0074830991216003895
1772883656335129000,7.502129150390625,0.2519819140434265,-0.1108720451593399,-0.010231993161141872
1772883656351712500,7.51871240234375,0.168751522898674,-0.15806138515472412,0.038179077208042145
1772883656368322000,7.535322021484375,0.0936150997877121,-0.1437060534954071,0.15913039445877075
1772883656384926200,7.55192626953125,0.019089538604021072,-0.10170906037092209,0.23945917189121246
1772883656401536500,7.56853662109375,-0.054367005825042725,-0.08781187981367111,0.20662516355514526
1772883656418138600,7.585138671875,-0.15042556822299957,-0.128434419631958,0.09040805697441101
1772883656434743300,7.601743408203125,-0.2515237629413605,-0.182648703455925,-0.035582900047302246
1772883656451344400,7.618344482421875,-0.32330042123794556,-0.12140946835279465,-0.07192938029766083
1772883656467957500,7.63495751953125,-0.3400992155075073,0.043218716979026794,0.01160643994808197
1772883656484576000,7.651575927734375,-0.3251330256462097,0.2496911734342575,0.1241583600640297
1772883656501179000,7.668178955078125,-0.3066543638706207,0.34956762194633484,0.11499538272619247
1772883656517766000,7.684765869140625,-0.28298333287239075,0.40485092997550964,0.02687807008624077
1772883656534371000,7.70137109375,-0.2742784917354584,0.41630467772483826,-0.07162395119667053
1772883656550989000,7.717989013671875,-0.30085113644599915,0.266184538602829,-0.19226983189582825
1772883656567598000,7.73459814453125,-0.3439171314239502,0.07727445662021637,-0.3455969989299774
1772883656584207400,7.751207275390625,-0.3735440969467163,-0.03649919852614403,-0.5294674634933472
1772883656600808700,7.76780859375,-0.37629300355911255,0.02015855349600315,-0.656680166721344
1772883656617412900,7.784412841796875,-0.3536909818649292,0.18784105777740479,-0.6513350605964661
1772883656634014200,7.80101416015625,-0.27229318022727966,0.3205515444278717,-0.5520694851875305
1772883656650613000,7.817613037109375,-0.14584407210350037,0.43050727248191833,-0.4424191415309906
1772883656667229200,7.834229248046875,-0.016035212203860283,0.44715335965156555,-0.34345898032188416
1772883656683831300,7.850831298828125,0.10873401165008545,0.34437528252601624,-0.21365012228488922
1772883656700438300,7.867438232421875,0.23640485107898712,0.20494529604911804,-0.06719517707824707
1772883656717043500,7.88404345703125,0.31154128909111023,0.08048149943351746,0.11530081182718277
1772883656733640700,7.900640625,0.28649580478668213,-0.02321287989616394,0.2588541507720947
1772883656750262800,7.9172626953125,0.18112154304981232,-0.1459967941045761,0.2776382565498352
1772883656766859000,7.93385888671875,0.010690141469240189,-0.2587014436721802,0.17928895354270935
1772883656783464200,7.950464111328125,-0.1339322030544281,-0.2542726695537567,0.028099801391363144
1772883656800069600,7.967069580078125,-0.2252565622329712,-0.07880161702632904,-0.11713340878486633
1772883656816674000,7.983674072265625,-0.22739458084106445,0.14446963369846344,-0.2431243658065796
1772883656833284000,8.0002841796875,-0.17302757501602173,0.3191770911216736,-0.2926044464111328
1772883656849863000,8.01686279296875,-0.12858712673187256,0.41462478041648865,-0.2840523421764374
1772883656866475800,8.033475830078125,-0.10659598559141159,0.40256020426750183,-0.294895201921463
1772883656883081200,8.050081298828125,-0.08552113175392151,0.32681289315223694,-0.3335324227809906
1772883656899685600,8.066685546875,-0.09498954564332962,0.2535090744495392,-0.3081815242767334
1772883656916290800,8.083290771484375,-0.16279558837413788,0.15027284622192383,-0.22968533635139465
1772883656932895700,8.099895751953126,-0.23884831368923187,0.02321287989616394,-0.19165897369384766
1772883656949492200,8.1164921875,-0.28878653049468994,0.04337143152952194,-0.22342395782470703
1772883656966105900,8.13310595703125,-0.303600013256073,0.14996741712093353,-0.2793181240558624
1772883656982728700,8.149728759765624,-0.29657506942749023,0.1963931769132614,-0.3095559775829315
1772883656999329800,8.166329833984374,-0.2811507284641266,0.15882496535778046,-0.2848159074783325
1772883657015932000,8.182931884765624,-0.26282477378845215,0.04505131021142006,-0.2226603776216507
1772883657032539000,8.199538818359375,-0.2321287989616394,-0.02428189292550087,-0.15913039445877075
1772883657049150000,8.21614990234375,-0.19547687470912933,-0.12140946835279465,-0.1235474944114685
1772883657065750000,8.23275,-0.14156801998615265,-0.20693060755729675,-0.10781771689653397
1772883657082355700,8.249355712890624,-0.07040221989154816,-0.2028072625398636,-0.09575312584638596
1772883657098960400,8.26596044921875,-0.0007635815418325365,-0.1771509200334549,-0.07467827945947647
1772883657115565300,8.2825654296875,0.038179077208042145,-0.15485434234142303,-0.033139441162347794
1772883657132166400,8.29916650390625,0.04382958263158798,-0.12431107461452484,-0.015118914656341076
1772883657148780300,8.3157802734375,0.047189339995384216,-0.11698069423437119,-0.047800205647945404
1772883657165380900,8.332380859375,0.03848451003432274,-0.13469578325748444,-0.09605856239795685
1772883657181986000,8.348986083984375,0.01664607785642147,-0.1440114825963974,-0.10170906037092209
1772883657198591500,8.365591552734376,-0.03955352306365967,-0.16264286637306213,-0.0933096632361412
1772883657215196700,8.38219677734375,-0.11270463466644287,-0.1690569519996643,-0.07880161702632904
1772883657231797200,8.39879736328125,-0.15393804013729095,-0.08674286305904388,-0.021991148591041565
1772883657248406000,8.415406005859374,-0.1267545372247696,0.06673702597618103,0.04596760869026184
1772883657264981000,8.43198095703125,-0.10018189996480942,0.13759739696979523,0.0884227454662323
1772883657281617200,8.4486171875,-0.0630718395113945,0.19593502581119537,0.11728613078594208
1772883657298221800,8.465221923828125,-0.029932396486401558,0.24938572943210602,0.11728613078594208
1772883657314826200,8.481826171875,-0.06948592513799667,0.1921171247959137,0.0064140851609408855
1772883657331411700,8.49841162109375,-0.15424346923828125,0.11682797968387604,-0.1293507218360901
1772883657348027000,8.51502685546875,-0.26022860407829285,0.07712173461914062,-0.2171625941991806
1772883657364628200,8.531628173828125,-0.3627012372016907,0.02229658141732216,-0.24984388053417206
1772883657381233400,8.5482333984375,-0.41172316670417786,-0.0754418596625328,-0.2278527319431305
1772883657397838600,8.564838623046874,-0.37629300355911255,-0.1241583600640297,-0.14049901068210602
1772883657414443800,8.58144384765625,-0.2629774808883667,-0.009926560334861279,0.012828170321881771
1772883657431044900,8.598044921875,-0.07040221989154816,0.15256360173225403,0.18616119027137756
1772883657447657000,8.614656982421875,0.14996741712093353,0.28649580478668213,0.3459024429321289
1772883657464258800,8.6312587890625,0.3237585723400116,0.2874121069908142,0.4404338300228119
1772883657480881400,8.64788134765625,0.4294382631778717,0.13790282607078552,0.4634940028190613
1772883657497482800,8.664482666015624,0.47739118337631226,-0.09972374886274338,0.4262312352657318
1772883657514088000,8.681087890625,0.522595226764679,-0.2996293902397156,0.4127921760082245
1772883657530688300,8.697688232421875,0.5676465034484863,-0.3969096839427948,0.4356996417045593
1772883657547302400,8.714302490234376,0.5913175344467163,-0.41859540343284607,0.46593746542930603
1772883657563902700,8.73090283203125,0.5962044596672058,-0.39675697684288025,0.4521929919719696
1772883657580508000,8.7475078125,0.6172793507575989,-0.33567044138908386,0.3871358633041382
1772883657597113000,8.764113037109375,0.6377432942390442,-0.26343563199043274,0.3326161205768585
1772883657613718500,8.780718505859374,0.6528622508049011,-0.21135938167572021,0.2958115041255951
1772883657630318300,8.797318359375,0.6351471543312073,-0.18814650177955627,0.24572055041790009
1772883657646932700,8.8139326171875,0.585667073726654,-0.1765400618314743,0.20494529604911804
1772883657663534000,8.8305341796875,0.5242751240730286,-0.12950342893600464,0.21594086289405823
1772883657680139000,8.847138916015625,0.46899178624153137,-0.10262536257505417,0.22968533635139465
1772883657696743200,8.8637431640625,0.4109596014022827,-0.12232576310634613,0.19883663952350616
1772883657713348600,8.8803486328125,0.3410155177116394,-0.10155634582042694,0.13515393435955048
1772883657729949200,8.89694921875,0.2545780837535858,0.01970040425658226,0.041691552847623825
1772883657746563000,8.91356298828125,0.16019940376281738,0.1661553531885147,-0.04642575979232788
1772883657763162600,8.93016259765625,0.07254024595022202,0.2727513313293457,-0.0806342139840126
1772883657779770000,8.94677001953125,-0.015577063895761967,0.3081815242767334,-0.07651086896657944
1772883657796374300,8.963374267578125,-0.10537425428628922,0.1915062516927719,-0.04703662544488907
1772883657812979500,8.9799794921875,-0.17318029701709747,0.0074830991216003895,-0.027641652151942253
1772883657829568800,8.99656884765625,-0.2252565622329712,-0.11621711403131485,-0.040164388716220856
1772883657846174000,9.013174072265626,-0.27000242471694946,-0.12446379661560059,-0.06902777403593063
1772883657862781200,9.02978125,-0.2987131178379059,-0.035582900047302246,-0.0754418596625328
1772883657879386000,9.04638623046875,-0.32788193225860596,-0.008246680721640587,-0.056810468435287476
1772883657895991000,9.062990966796875,-0.37140607833862305,-0.09682214260101318,-0.001832595793530345
1772883657912595700,9.079595703125,-0.42210787534713745,-0.1966986060142517,0.029474247246980667
1772883657929201400,9.096201416015624,-0.46379944682121277,-0.2736676335334778,0.024434609338641167
1772883657945806600,9.112806640625,-0.4787656366825104,-0.27977627515792847,0.00427605677396059
1772883657962414600,9.12941455078125,-0.47678032517433167,-0.1696678251028061,0.02535090781748295
1772883657979029800,9.14602978515625,-0.45891252160072327,0.016493361443281174,0.06154467165470123
1772883657995635500,9.162635498046875,-0.4642575979232788,0.2064724564552307,0.054367005825042725
1772883658012241000,9.179240966796876,-0.46471574902534485,0.3393356502056122,-0.01466076634824276
1772883658028840700,9.1958408203125,-0.46242499351501465,0.323147714138031,-0.15317445993423462
1772883658045454800,9.212454833984374,-0.5345070958137512,0.19578230381011963,-0.31031954288482666
1772883658062055400,9.229055419921876,-0.6875288486480713,0.10033461451530457,-0.4127921760082245
1772883658078660900,9.245660888671875,-0.7609853744506836,0.002138028386980295,-0.4294382631778717
1772883658095265300,9.262265380859375,-0.6670648455619812,0.19547687470912933,-0.36102136969566345
1772883658111871000,9.27887109375,-0.4280638098716736,0.5395467281341553,-0.29016098380088806
1772883658128471600,9.295471435546874,-0.1495092660188675,0.7750352621078491,-0.2041817009449005
1772883658145085400,9.31208544921875,0.00931569468230009,0.7852672934532166,-0.09239336848258972
1772883658161686300,9.328686279296875,0.0507018156349659,0.4570799171924591,-0.01114829070866108
1772883658178290700,9.345290771484375,0.03481931984424591,-0.019089538604021072,0.12217304855585098
1772883658194896100,9.361896240234374,0.03955352306365967,-0.28848111629486084,0.32498031854629517
1772883658211501600,9.37850146484375,0.04688390716910362,-0.24388794600963593,0.5682573914527893
1772883658228101600,9.3951015625,0.014049900695681572,-0.10247264802455902,0.7017314434051514
1772883658244715800,9.4117158203125,-0.047800205647945404,-0.12247848510742188,0.6195700764656067
1772883658261316900,9.42831689453125,-0.11545353382825851,-0.11438451707363129,0.44547349214553833
1772883658277922000,9.444922119140625,-0.18616119027137756,-0.033597588539123535,0.31444287300109863
1772883658294551800,9.4615517578125,-0.27580565214157104,0.1007927656173706,0.323147714138031
1772883658311114800,9.47811474609375,-0.30772337317466736,0.2561052441596985,0.3556762933731079
1772883658327722800,9.49472265625,-0.2935207486152649,0.4011857509613037,0.30925053358078003
1772883658344325600,9.51132568359375,-0.2684752643108368,0.49617528915405273,0.19364428520202637
1772883658360936200,9.527936279296876,-0.2399173229932785,0.5322163701057434,0.10919216275215149
1772883658377538000,9.5445380859375,-0.20845776796340942,0.5500841736793518,0.06444628536701202
1772883658394143500,9.5611435546875,-0.2246456891298294,0.5352706909179688,0.06643159687519073
1772883658410749000,9.5777490234375,-0.2373211532831192,0.3387247920036316,-0.05543602257966995
1772883658427353000,9.59435302734375,-0.21349740028381348,0.19898934662342072,-0.2171625941991806
1772883658443955200,9.610955078125,-0.20387627184391022,0.16233743727207184,-0.3520110845565796
