time,seconds_elapsed,z,y,x
1772883649003963100,0.170963134765625,7.381857872009277,4.818546772003174,-1.3657035827636719
1772883649020574000,0.187573974609375,7.204190731048584,4.905884742736816,-1.191625714302063
1772883649037180700,0.2041806640625,7.0857462882995605,4.917250633239746,-0.99481600522995
1772883649053783300,0.220783203125,7.4362945556640625,4.919643402099609,-0.7818548083305359
1772883649070396200,0.237396240234375,7.9351983070373535,4.829314231872559,-0.7998009920120239
1772883649087003600,0.254003662109375,8.22114086151123,4.607978343963623,-0.9032905697822571
1772883649103611400,0.270611328125,8.461020469665527,4.4650068283081055,-1.2215359210968018
1772883649120216800,0.287216796875,9.008378982543945,4.277170658111572,-1.4889339208602905
1772883649136822500,0.303822509765625,9.739984512329102,4.060021877288818,-1.5134602785110474
1772883649153421800,0.320421875,10.094720840454102,4.053441524505615,-1.3770694732666016
1772883649170039000,0.3370390625,10.305289268493652,4.168296813964844,-1.090528964996338
1772883649186636500,0.353636474609375,10.500304222106934,4.3070807456970215,-0.8560323119163513
1772883649203243800,0.370243896484375,10.72702407836914,4.288536548614502,-0.6329016089439392
1772883649219848700,0.3868486328125,10.665409088134766,4.06121826171875,-0.44745782017707825
1772883649236453000,0.403453125,10.311270713806152,3.827319860458374,-0.380458801984787
1772883649253051600,0.4200517578125,9.93380355834961,3.583251953125,-0.2602194547653198
1772883649269669600,0.436669677734375,9.488140106201172,3.4193434715270996,-0.14416755735874176
1772883649286268000,0.453267822265625,9.136993408203125,3.2859437465667725,-0.062213387340307236
1772883649302872300,0.469872314453125,9.086145401000977,3.193819999694824,-0.02871387079358101
1772883649319485200,0.486485107421875,9.16869831085205,3.1561331748962402,0.02273181453347206
1772883649336083200,0.503083251953125,9.122636795043945,3.0975089073181152,0.1423729509115219
1772883649352685000,0.51968505859375,8.937790870666504,3.0514471530914307,0.23389841616153717
1772883649369297200,0.536297119140625,8.483154296875,2.98085880279541,0.10229317098855972
1772883649385898000,0.55289794921875,7.894520282745361,2.984447956085205,0.02392822690308094
1772883649402506800,0.5695068359375,7.454838752746582,3.1998021602630615,0.008973085321485996
1772883649419110000,0.58610986328125,7.555935859680176,3.411566972732544,0.029312077909708023
1772883649435713800,0.6027138671875,7.989634990692139,3.5024940967559814,0.017946170642971992
1772883649452318700,0.619318603515625,8.166105270385742,3.5330026149749756,-0.0023928226437419653
1772883649468910600,0.63591064453125,8.062616348266602,3.685544967651367,-0.03409772366285324
1772883649485538000,0.6525380859375,8.006982803344727,3.865604877471924,0.058624155819416046
1772883649502122000,0.6691220703125,7.981259822845459,3.965505361557007,0.10707881301641464
1772883649518726100,0.68572607421875,8.307880401611328,3.893122434616089,0.047258246690034866
1772883649535333600,0.702333740234375,8.82233715057373,3.7369906902313232,-0.06161518394947052
1772883649551934000,0.718933837890625,9.293723106384277,3.579662561416626,-0.1136590763926506
1772883649568543700,0.735543701171875,9.707083702087402,3.4791641235351562,-0.13579268753528595
1772883649585146400,0.752146484375,9.999007225036621,3.472583770751953,-0.137587308883667
1772883649601769000,0.76876904296875,9.964311599731445,3.525225877761841,-0.20338992774486542
1772883649618367700,0.78536767578125,9.635896682739258,3.6335012912750244,-0.35413774847984314
1772883649634977800,0.801977783203125,9.179466247558594,3.7148571014404297,-0.3846462368965149
1772883649651583200,0.818583251953125,9.135796546936035,3.7710886001586914,-0.3122633695602417
1772883649668190200,0.835190185546875,9.366106033325195,3.758526086807251,-0.2273181527853012
1772883649684788200,0.851788330078125,9.56889820098877,3.702893018722534,-0.15254244208335876
1772883649701401600,0.868401611328125,9.582656860351562,3.6987056732177734,-0.22432711720466614
1772883649717993200,0.8849931640625,9.53360366821289,3.728017568588257,-0.3481557071208954
1772883649734604500,0.9016044921875,9.245268821716309,3.758526086807251,-0.40378883481025696
1772883649751206400,0.918206298828125,9.004191398620605,3.8566319942474365,-0.4061816334724426
1772883649767815700,0.934815673828125,9.037691116333008,3.8943188190460205,-0.30568310618400574
1772883649784419600,0.951419677734375,9.388239860534668,3.8494534492492676,-0.2267199456691742
1772883649801027000,0.968027099609375,9.827322959899902,3.6909289360046387,-0.16331014037132263
1772883649817629400,0.98462939453125,10.002596855163574,3.492922782897949,-0.251844584941864
1772883649834238500,1.001238525390625,9.985847473144531,3.3403804302215576,-0.3248256742954254
1772883649850848800,1.017848876953125,9.938589096069336,3.3200414180755615,-0.28175488114356995
1772883649867443700,1.034443603515625,9.873982429504395,3.2231321334838867,-0.19561325013637543
1772883649884050700,1.05105078125,9.870393753051758,3.1890344619750977,-0.1339980661869049
1772883649900656400,1.067656494140625,9.719047546386719,3.0544381141662598,-0.2584248483181
1772883649917265700,1.084265625,9.330811500549316,2.9383862018585205,-0.6681957244873047
1772883649933862000,1.10086181640625,9.239286422729492,3.084946632385254,-1.1066805124282837
1772883649950476800,1.117476806640625,9.370293617248535,3.422334671020508,-1.272383451461792
1772883649967065300,1.1340654296875,9.512666702270508,3.7818562984466553,-1.1461620330810547
1772883649983665700,1.150665771484375,9.744770050048828,4.241876125335693,-0.9098708033561707
1772883650000274000,1.16727392578125,9.643074989318848,4.508676052093506,-0.30927231907844543
1772883650016876000,1.1838759765625,9.522237777709961,4.53200626373291,0.2225325107574463
1772883650033493000,1.200492919921875,9.622735977172852,4.109074592590332,0.5341976284980774
1772883650050084600,1.217084716796875,10.468000411987305,3.2231321334838867,0.6041877269744873
1772883650066698000,1.233697998046875,11.035099983215332,2.3060827255249023,0.5611169338226318
1772883650083314200,1.250314208984375,11.33240795135498,1.6426727771759033,0.14775680005550385
1772883650099918300,1.26691845703125,10.972288131713867,1.2837493419647217,-0.3116651475429535
1772883650116511000,1.283510986328125,10.309475898742676,1.3028919696807861,-0.6239284873008728
1772883650133123600,1.30012353515625,9.636494636535645,1.3884353637695312,-0.8727820515632629
1772883650149728800,1.316728759765625,8.873184204101562,1.495514154434204,-0.9678967595100403
1772883650166346000,1.333345947265625,8.117053031921387,1.8113667964935303,-0.794417142868042
1772883650182939100,1.349939208984375,8.085348129272461,2.297708034515381,-0.5748756527900696
1772883650199572200,1.366572265625,8.545368194580078,2.569293260574341,-0.39900317788124084
1772883650216152600,1.383152587890625,8.862417221069336,2.612962245941162,-0.05563312768936157
1772883650232753700,1.399753662109375,8.911469459533691,2.513062000274658,0.5072783827781677
1772883650249363200,1.41636328125,9.269794464111328,2.4364917278289795,0.9684949517250061
1772883650265971200,1.43297119140625,10.186245918273926,2.1003000736236572,1.1330015659332275
1772883650282576100,1.449576171875,10.896316528320312,1.7072789669036865,0.9876375198364258
1772883650299184000,1.46618408203125,10.861021995544434,1.4087743759155273,0.5886343717575073
1772883650315782400,1.482782470703125,10.122836112976074,1.3417752981185913,0.20039889216423035
1772883650332383000,1.499383056640625,9.216554641723633,1.6301103830337524,0.030508488416671753
1772883650349000400,1.51600048828125,8.595617294311523,2.08713960647583,0.061016976833343506
1772883650365597700,1.53259765625,8.306683540344238,2.489732027053833,0.1950150430202484
1772883650382202000,1.5492021484375,8.172087669372559,2.8175487518310547,0.32243284583091736
1772883650398806300,1.56580615234375,8.187042236328125,3.06999135017395,0.4534398913383484
1772883650415418400,1.58241845703125,8.143373489379883,3.1692936420440674,0.5838487148284912
1772883650432014000,1.59901416015625,8.176275253295898,3.169891834259033,0.5401797294616699
1772883650448624400,1.615624267578125,8.376673698425293,3.177668571472168,0.4630111753940582
1772883650465221400,1.632221435546875,8.508278846740723,3.2470602989196777,0.29012975096702576
1772883650481821000,1.648821044921875,8.400602340698242,3.328416347503662,0.17168502509593964
1772883650498426400,1.66542626953125,8.3629150390625,3.525225877761841,0.07776673883199692
1772883650515030000,1.682030029296875,8.416753768920898,3.70767879486084,0.04546362906694412
1772883650531638500,1.698638427734375,8.441280364990234,3.8949170112609863,-0.005982056725770235
1772883650548229600,1.715229736328125,8.587242126464844,3.9840497970581055,-0.1495514214038849
1772883650564842500,1.731842529296875,8.664410591125488,4.002593994140625,-0.030508488416671753
1772883650581468400,1.748468505859375,8.85523796081543,4.047459602355957,0.06939185410737991
1772883650598069000,1.765069091796875,9.083154678344727,3.8919260501861572,0.08614161610603333
1772883650614673700,1.781673583984375,9.354142189025879,3.7088751792907715,-0.050847481936216354
1772883650631280400,1.7982802734375,9.712467193603516,3.4546377658843994,-0.08793623000383377
1772883650647884000,1.814884033203125,10.099506378173828,3.4552359580993652,-0.19561325013637543
1772883650664495000,1.8314951171875,10.473982810974121,3.6083765029907227,-0.33020952343940735
1772883650681095400,1.848095458984375,10.232307434082031,3.6735808849334717,-0.4336991012096405
1772883650697684700,1.864684814453125,9.91286563873291,4.027120590209961,-0.7208378314971924
1772883650714304500,1.881304443359375,9.654440879821777,4.272983074188232,-0.7561319470405579
1772883650730910500,1.897910400390625,9.632308006286621,4.133601188659668,-0.13040883839130402
1772883650747509800,1.914509765625,10.04985523223877,3.7603209018707275,0.4145565330982208
1772883650764134000,1.9311337890625,10.600204467773438,3.122035264968872,0.784247636795044
1772883650780711400,1.94771142578125,10.959726333618164,2.383251428604126,0.9684949517250061
1772883650797322800,1.96432275390625,10.904690742492676,1.9256240129470825,0.6831508874893188
1772883650813941500,1.98094140625,10.529017448425293,1.6426727771759033,0.2147558331489563
1772883650830562800,1.997562744140625,9.820143699645996,1.5469598770141602,-0.15553347766399384
1772883650847122200,2.0141220703125,9.593423843383789,1.828116536140442,-0.31465616822242737
1772883650863749600,2.03074951171875,9.732806205749512,2.063809633255005,-0.27038896083831787
1772883650880357000,2.047357177734375,9.850054740905762,2.231905221939087,-0.18843477964401245
1772883650896960000,2.0639599609375,9.743574142456055,2.325225353240967,-0.053240302950143814
1772883650913565200,2.080565185546875,9.594620704650879,2.4460630416870117,0.19680966436862946
1772883650930175200,2.09717529296875,9.494122505187988,2.538186550140381,0.5042873620986938
1772883650946772200,2.113772216796875,9.470791816711426,2.5561327934265137,0.633499801158905
1772883650963371800,2.130371826171875,9.578469276428223,2.513062000274658,0.8099704384803772
1772883650979968800,2.14696875,9.669994354248047,2.45204496383667,0.7417750358581543
1772883650996579300,2.163579345703125,9.559925079345703,2.3294129371643066,0.3924229145050049
1772883651013182200,2.18018212890625,8.93539810180664,2.335394859313965,0.013160524889826775
1772883651029788700,2.19678857421875,8.172685623168945,2.554936408996582,-0.35413774847984314
1772883651046394000,2.21339404296875,7.6390862464904785,2.843271493911743,-0.5880361795425415
1772883651063014000,2.230013916015625,7.308278560638428,3.108276605606079,-0.6652047038078308
1772883651079617500,2.246617431640625,7.314260482788086,3.2997024059295654,-0.6687939167022705
1772883651096223000,2.263222900390625,7.537989616394043,3.4019956588745117,-0.597607433795929
1772883651112825300,2.279825439453125,7.905886173248291,3.415156126022339,-0.5850451588630676
1772883651129433000,2.29643310546875,8.13260555267334,3.2895328998565674,-0.6879364848136902
1772883651146036700,2.31303662109375,8.24686336517334,3.31465744972229,-0.6735795736312866
1772883651162642700,2.329642578125,8.484949111938477,3.393620729446411,-0.6843472719192505
1772883651179247900,2.346247802734375,8.590232849121094,3.455834150314331,-0.5120640397071838
1772883651195837400,2.36283740234375,8.656036376953125,3.57906436920166,-0.2871387302875519
1772883651212456200,2.379456298828125,8.6907320022583,3.620340585708618,-0.02392822690308094
1772883651229063700,2.396063720703125,8.863015174865723,3.6406795978546143,0.06640082597732544
1772883651245666800,2.412666748046875,8.877371788024902,3.6358940601348877,0.047258246690034866
1772883651262274800,2.42927490234375,8.94975471496582,3.6125640869140625,0.08015955984592438
1772883651278878500,2.44587841796875,9.094520568847656,3.5946178436279297,0.16031911969184875
1772883651295487000,2.462487060546875,9.061619758605957,3.5742788314819336,0.21296121180057526
1772883651312088600,2.479088623046875,9.010173797607422,3.511467218399048,0.24167509377002716
1772883651328693200,2.495693359375,8.968897819519043,3.4432718753814697,0.32243284583091736
1772883651345297700,2.512297607421875,8.928817749023438,3.303889751434326,0.37447673082351685
1772883651361903400,2.5289033203125,9.06401252746582,3.4408788681030273,0.1788634955883026
1772883651378510000,2.545510009765625,9.273982048034668,3.617947816848755,-0.09870393574237823
1772883651395113200,2.56211328125,9.350552558898926,3.7740795612335205,-0.39421752095222473
1772883651411717400,2.57871728515625,9.266205787658691,3.8560338020324707,-0.5892325639724731
1772883651428333600,2.59533349609375,9.137591361999512,3.9050865173339844,-0.3397808074951172
1772883651444899800,2.61189990234375,9.572486877441406,4.079164505004883,0.05144568532705307
1772883651461538600,2.62853857421875,10.72582721710205,3.893122434616089,0.2871387302875519
1772883651478125800,2.645125732421875,11.942577362060547,3.1106693744659424,0.4420739710330963
1772883651494729700,2.661729736328125,12.701701164245605,2.1158533096313477,0.2153540402650833
1772883651511336700,2.678336669921875,12.666406631469727,1.2873386144638062,-0.2883351147174835
1772883651527940400,2.6949404296875,11.974881172180176,0.9355936646461487,-0.9278169870376587
1772883651544544800,2.711544677734375,11.066804885864258,1.0103694200515747,-1.3286148309707642
1772883651561169200,2.728169189453125,9.969097137451172,1.32921302318573,-1.430309772491455
1772883651577768400,2.7447685546875,8.885149002075195,1.7569299936294556,-1.2915260791778564
1772883651594370600,2.76137060546875,8.09252643585205,2.197209358215332,-1.1928220987319946
1772883651610982400,2.777982421875,7.923233985900879,2.5357937812805176,-1.25144624710083
1772883651627584300,2.794584228515625,8.153543472290039,2.7487549781799316,-1.275374412536621
1772883651652514000,2.81951416015625,8.493324279785156,2.8414769172668457,-1.0037890672683716
1772883651669082600,2.83608251953125,8.768498420715332,2.8079774379730225,-0.6711867451667786
1772883651685687300,2.852687255859375,9.565308570861816,2.555534601211548,-0.2997010350227356
1772883651702309000,2.86930908203125,10.50209903717041,2.166700839996338,-0.1256231814622879
1772883651718909700,2.88590966796875,11.064412117004395,1.7527425289154053,-0.20398813486099243
1772883651735512800,2.902512939453125,11.14038372039795,1.4165509939193726,-0.5796613097190857
1772883651752103700,2.919103759765625,10.778470039367676,1.2191431522369385,-0.8757730722427368
1772883651768719000,2.935718994140625,10.0343017578125,1.3214362859725952,-0.9379864931106567
1772883651785333000,2.9523330078125,9.375677108764648,1.5667005777359009,-0.7651050686836243
1772883651801936100,2.96893603515625,8.952147483825684,1.7754744291305542,-0.5072783827781677
1772883651818559000,2.98555908203125,8.726025581359863,1.8586249351501465,-0.47676992416381836
1772883651835152000,3.00215185546875,8.769695281982422,1.7784653902053833,-0.5970092415809631
1772883651851736800,3.01873681640625,8.745766639709473,1.7359927892684937,-0.6885347366333008
1772883651868342800,3.0353427734375,8.554939270019531,1.7479569911956787,-0.615553617477417
1772883651884953300,3.051953369140625,8.419146537780762,1.8604196310043335,-0.503689169883728
1772883651901571600,3.068571533203125,8.468199729919434,2.1367905139923096,-0.3008974492549896
1772883651918172200,3.085172119140625,8.558527946472168,2.5322046279907227,0.016749758273363113
1772883651934781400,3.101781494140625,8.711071014404297,2.9186453819274902,0.3535395562648773
1772883651951374600,3.11837451171875,8.985647201538086,3.191427230834961,0.7082754969596863
1772883651967959300,3.134959228515625,9.220742225646973,3.4654054641723633,0.8715856671333313
1772883651984567800,3.15156787109375,9.434301376342773,3.624528169631958,1.0289137363433838
1772883652001185300,3.168185302734375,9.65803050994873,3.702893018722534,1.1335997581481934
1772883652017788200,3.1847880859375,9.65503978729248,3.635295867919922,1.1856436729431152
1772883652034396200,3.201396240234375,9.54197883605957,3.510869026184082,1.0325030088424683
1772883652051021300,3.218021240234375,9.340383529663086,3.3547372817993164,0.511465847492218
1772883652067619800,3.234619873046875,9.197412490844727,3.372683525085449,-0.09511470049619675
1772883652084235800,3.25123583984375,9.099306106567383,3.4025938510894775,-0.38644084334373474
1772883652100830500,3.26783056640625,9.005986213684082,3.479762315750122,-0.5431707501411438
1772883652117428700,3.2844287109375,9.336195945739746,3.6807594299316406,-0.6819544434547424
1772883652134047000,3.301046875,9.915857315063477,3.492922782897949,-0.39481574296951294
1772883652150629000,3.317629150390625,10.75813102722168,3.1435706615448,0.14297115802764893
1772883652167234300,3.334234375,11.861222267150879,2.6500511169433594,0.49651068449020386
1772883652183851800,3.350851806640625,12.950553894042969,1.9591234922409058,0.45164528489112854
1772883652200444400,3.3674443359375,13.566107749938965,1.215553879737854,0.2991028428077698
1772883652217046800,3.384046875,13.23829174041748,0.529412031173706,0.052043892443180084
1772883652233659100,3.4006591796875,12.315857887268066,0.08255238085985184,-0.34277185797691345
1772883652250264300,3.417264404296875,10.981261253356934,-0.09571290761232376,-0.7908278703689575
1772883652266881500,3.433881591796875,9.780064582824707,0.018544375896453857,-1.1467602252960205
1772883652283491800,3.450491943359375,8.92821979522705,0.30568310618400574,-1.0636097192764282
1772883652300086800,3.467086669921875,8.428717613220215,0.8267202377319336,-0.5353940725326538
1772883652316692700,3.483692626953125,8.12542724609375,1.3651052713394165,-0.003589233849197626
1772883652333305300,3.500305419921875,8.087740898132324,1.7856439352035522,0.5497509837150574
1772883652349917400,3.51691748046875,8.09252643585205,2.1278176307678223,0.8584251403808594
1772883652366512000,3.53351220703125,7.694719314575195,2.270190477371216,1.0863415002822876
1772883652383116300,3.5501162109375,7.490133285522461,2.454437732696533,1.0887342691421509
1772883652399722200,3.56672216796875,7.524828910827637,2.3880369663238525,1.0977073907852173
1772883652416327400,3.583327392578125,7.823931694030762,2.14516544342041,0.7597211599349976
1772883652432902100,3.599902099609375,8.185846328735352,1.8646070957183838,0.4061816334724426
1772883652449523500,3.6165234375,8.35573673248291,1.643869161605835,0.12143574655056
1772883652466129000,3.63312890625,8.416753768920898,1.5804593563079834,-0.22372891008853912
1772883652482733600,3.649733642578125,8.347960472106934,1.567897081375122,-0.5150550603866577
1772883652499335200,3.666335205078125,7.990232944488525,1.7276179790496826,-0.6699903607368469
1772883652515942100,3.682942138671875,7.931010723114014,2.0338993072509766,-0.7579265832901001
1772883652532554500,3.699554443359375,8.071588516235352,2.179861545562744,-0.8392825126647949
1772883652549150200,3.716150146484375,8.077570915222168,2.324028968811035,-0.9385846853256226
1772883652565773300,3.732773193359375,8.300103187561035,2.465205430984497,-0.924227774143219
1772883652582373000,3.749373046875,8.594420433044434,2.6015963554382324,-0.8147560954093933
1772883652598987000,3.765987060546875,8.663812637329102,2.7696921825408936,-0.7663014531135559
1772883652615589600,3.782589599609375,8.894720077514648,2.9868409633636475,-0.6801598072052002
1772883652632191700,3.799191650390625,9.09811019897461,3.1411778926849365,-0.5605186820030212
1772883652648767200,3.815767333984375,9.391828536987305,3.3020951747894287,-0.5515456199645996
1772883652665403000,3.83240283203125,9.66819953918457,3.362514019012451,-0.5569294691085815
1772883652682008000,3.849008056640625,10.13180923461914,3.3720853328704834,-0.5694918036460876
1772883652698617900,3.865617919921875,10.434501647949219,3.3230323791503906,-0.5904290080070496
1772883652715214300,3.88221435546875,10.577472686767578,3.339184045791626,-0.6197410821914673
1772883652731815000,3.89881494140625,10.816754341125488,3.346362352371216,-0.5635097622871399
1772883652748412000,3.915411865234375,11.177473068237305,3.235694408416748,-0.6382854580879211
1772883652765033200,3.932033203125,11.279766082763672,3.1172497272491455,-0.6592226624488831
1772883652781639200,3.94863916015625,11.209775924682617,3.0209386348724365,-0.6735795736312866
1772883652798248400,3.96524853515625,11.010573387145996,3.1304101943969727,-0.8632107973098755
1772883652814840800,3.9818408203125,10.96451187133789,3.1752755641937256,-1.134796142578125
1772883652831458300,3.998458251953125,11.293524742126465,3.1435706615448,-1.472184181213379
1772883652848043500,4.01504345703125,11.675179481506348,2.932404041290283,-1.5332010984420776
1772883652864664000,4.0316640625,11.58963680267334,2.733201742172241,-1.2281162738800049
1772883652881260800,4.0482607421875,11.45384407043457,2.9353952407836914,-0.9672985672950745
1772883652897849300,4.064849365234375,11.029117584228516,3.0317063331604004,-0.45224347710609436
1772883652914472400,4.081472412109375,10.096514701843262,2.7810580730438232,0.3164508044719696
1772883652931072800,4.09807275390625,9.042476654052734,2.595614433288574,1.0857433080673218
1772883652947675600,4.114675537109375,8.986245155334473,2.6638097763061523,1.4644074440002441
1772883652964281300,4.13128125,9.677172660827637,2.551945447921753,1.4500504732131958
1772883652980886000,4.147885986328125,10.123434066772461,2.142772674560547,1.1623135805130005
1772883652997494500,4.16449462890625,9.966704368591309,1.9010975360870361,0.6687939167022705
1772883653014089700,4.18108984375,9.220742225646973,1.714457392692566,0.2225325107574463
1772883653030721500,4.197721435546875,8.4502534866333,1.8717855215072632,-0.12622138857841492
1772883653047320300,4.2143203125,8.267800331115723,2.152343988418579,-0.1423729509115219
1772883653063925000,4.230925048828125,8.61894702911377,2.3509483337402344,0.029312077909708023
1772883653080528100,4.247528076171875,8.82532787322998,2.38983154296875,0.20099709928035736
1772883653097136000,4.26413623046875,9.06401252746582,2.5010979175567627,0.44446679949760437
1772883653113733600,4.280733642578125,9.710672378540039,2.5489542484283447,0.6705885529518127
1772883653130356000,4.29735595703125,10.367502212524414,2.5124638080596924,0.7525427341461182
1772883653146913300,4.313913330078125,10.766505241394043,2.4017956256866455,0.7304090857505798
1772883653163556400,4.330556396484375,10.668399810791016,2.2576282024383545,0.672383189201355
1772883653180156700,4.34715673828125,10.156933784484863,2.1816561222076416,0.550349235534668
1772883653196774400,4.3637744140625,9.531210899353027,2.3808584213256836,0.5222335457801819
1772883653213362700,4.38036279296875,8.905488014221191,2.6261229515075684,0.7136593461036682
1772883653229979600,4.396979736328125,8.50708293914795,2.7212376594543457,0.8171489238739014
1772883653246570000,4.413570068359375,8.339585304260254,2.7385854721069336,0.7992027401924133
1772883653263183600,4.43018359375,8.161319732666016,2.7427730560302734,0.6807580590248108
1772883653279787500,4.44678759765625,7.812565803527832,2.7529425621032715,0.7495517134666443
1772883653296396500,4.463396484375,7.504489898681641,2.8492536544799805,0.828514814376831
1772883653313005000,4.480005126953125,7.378268718719482,2.9862427711486816,0.8781659007072449
1772883653329606700,4.496606689453125,7.351349353790283,3.1483564376831055,0.9176474809646606
1772883653346195000,4.51319482421875,7.267002582550049,3.3003005981445312,0.9290133714675903
1772883653362799400,4.52979931640625,7.133602619171143,3.5192439556121826,0.9026923179626465
1772883653379417600,4.54641748046875,7.05763053894043,3.748356580734253,0.8715856671333313
1772883653396030700,4.56303076171875,7.320840835571289,3.9762730598449707,0.8428717851638794
1772883653412615200,4.579615234375,7.739584922790527,4.11505651473999,0.8560323119163513
1772883653429223400,4.596223388671875,7.978867053985596,4.323830604553223,0.7746763229370117
1772883653445828000,4.612828125,8.115856170654297,4.439882278442383,0.8512466549873352
1772883653462433300,4.629433349609375,8.441878318786621,4.48414945602417,1.074377417564392
1772883653479039000,4.6460390625,9.039485931396484,4.387838363647461,1.3812568187713623
1772883653495647000,4.66264697265625,9.967901229858398,4.152743816375732,1.4889339208602905
1772883653512242700,4.67924267578125,10.912467956542969,3.7716867923736572,1.3950155973434448
1772883653528873700,4.695873779296875,11.607583045959473,3.5952160358428955,1.0408778190612793
1772883653545455900,4.712455810546875,11.775080680847168,3.5407793521881104,0.8859425783157349
1772883653562077700,4.72907763671875,11.393424987792969,3.4791641235351562,0.9308080077171326
1772883653578681900,4.745681884765625,10.905887603759766,3.8865420818328857,0.7597211599349976
1772883653595292000,4.7622919921875,10.218548774719238,4.083950042724609,0.8608179688453674
1772883653611893000,4.77889306640625,9.784252166748047,4.073780536651611,0.96370929479599
1772883653628495000,4.7954951171875,9.639486312866211,3.9086756706237793,1.0636097192764282
1772883653645088500,4.812088623046875,9.7064847946167,3.435495138168335,1.1264212131500244
1772883653661707800,4.828707763671875,9.974481582641602,2.8839495182037354,1.0348957777023315
1772883653678310700,4.845310546875,10.194621086120605,2.3509483337402344,0.9487541913986206
1772883653694922000,4.861921875,10.153943061828613,1.911865234375,0.7926225066184998
1772883653711523000,4.878523193359375,9.605986595153809,1.721037745475769,0.5599204897880554
1772883653728128000,4.8951279296875,8.872586250305176,1.7473586797714233,0.4492524564266205
1772883653744727300,4.911727294921875,8.33300495147705,1.9663020372390747,0.4875376224517822
1772883653761338600,4.928338623046875,8.178668022155762,2.3222343921661377,0.5916253924369812
1772883653777939700,4.944939697265625,8.431110382080078,2.6967110633850098,0.784247636795044
1772883653794553000,4.961552978515625,8.648857116699219,2.912065267562866,1.0618150234222412
1772883653811154000,4.97815380859375,8.596813201904297,3.1788649559020996,1.1982059478759766
1772883653827758800,4.9947587890625,8.304888725280762,3.4713873863220215,1.2687941789627075
1772883653844338400,5.01133837890625,8.018348693847656,3.735196113586426,1.4015958309173584
1772883653860971300,5.02797119140625,7.801798343658447,3.879363775253296,1.6857435703277588
1772883653877574700,5.04457470703125,8.044071197509766,3.982254981994629,1.7042878866195679
1772883653894184000,5.061183837890625,8.837292671203613,3.7525441646575928,1.5499508380889893
1772883653910762500,5.077762451171875,9.425926208496094,3.3643085956573486,1.2041879892349243
1772883653927375600,5.094375732421875,9.467801094055176,3.0239295959472656,0.7902296781539917
1772883653943967700,5.1109677734375,9.175278663635254,2.9001009464263916,0.2841476798057556
1772883653960586200,5.127586181640625,8.659625053405762,2.9557342529296875,-0.10468599200248718
1772883653977191200,5.144191162109375,8.120043754577637,3.0520453453063965,-0.3451646566390991
1772883653993796400,5.16079638671875,7.734799385070801,3.1866414546966553,-0.3607180118560791
1772883654010409700,5.17740966796875,7.776673793792725,3.2542388439178467,-0.3367897868156433
1772883654027019800,5.194019775390625,7.944769382476807,3.260220766067505,-0.2709871530532837
1772883654043621400,5.210621337890625,8.14098072052002,3.2853455543518066,-0.1902294009923935
1772883654060230000,5.22722998046875,8.144570350646973,3.3379876613616943,-0.1663011759519577
1772883654076835300,5.24383544921875,8.196614265441895,3.37687087059021,-0.1902294009923935
1772883654093440800,5.260440673828125,8.357531547546387,3.4510483741760254,-0.25244277715682983
1772883654110045200,5.277045166015625,8.417351722717285,3.5431721210479736,-0.3481557071208954
1772883654126653400,5.2936533203125,8.513663291931152,3.6843485832214355,-0.5150550603866577
1772883654143266300,5.310266357421875,8.762516975402832,3.8943188190460205,-0.6915257573127747
1772883654159860700,5.32686083984375,8.889934539794922,4.151547431945801,-0.9200403094291687
1772883654176471600,5.343471435546875,8.849854469299316,4.406980991363525,-1.195214867591858
1772883654193065000,5.36006494140625,8.906683921813965,4.64805793762207,-1.3704891204833984
1772883654209676300,5.37667626953125,9.078369140625,4.687539577484131,-1.2999008893966675
1772883654226267100,5.39326708984375,9.483354568481445,4.6271209716796875,-0.9966106414794922
1772883654242869200,5.409869140625,10.428519248962402,4.573282241821289,-0.7674978375434875
1772883654259490800,5.42649072265625,11.835498809814453,4.325624942779541,-0.7489534616470337
1772883654276089600,5.443089599609375,13.060026168823242,3.8362929821014404,-0.802193820476532
1772883654292691500,5.45969140625,13.509876251220703,3.503690481185913,-1.0510473251342773
1772883654309292300,5.476292236328125,13.320245742797852,3.142374277114868,-1.0241280794143677
1772883654325884700,5.492884765625,12.873984336853027,3.0029923915863037,-0.9320043921470642
1772883654342503000,5.5095029296875,12.088540077209473,3.06999135017395,-0.778863787651062
1772883654359108400,5.5261083984375,11.198410034179688,3.177668571472168,-0.5383850932121277
1772883654375709700,5.542709716796875,10.578668594360352,3.3379876613616943,-0.4570291340351105
1772883654392321500,5.559321533203125,10.17009449005127,3.232105255126953,-0.3122633695602417
1772883654408923600,5.575923583984375,9.941579818725586,2.6979074478149414,-0.22851456701755524
1772883654425528300,5.5925283203125,10.075577735900879,2.1164517402648926,-0.39182472229003906
1772883654442121700,5.609121826171875,10.221540451049805,1.674377679824829,-0.5581258535385132
1772883654458738700,5.62573876953125,10.04566764831543,1.32921302318573,-0.7082754969596863
1772883654475344400,5.642344482421875,9.540184020996094,1.1575279235839844,-0.8739784955978394
1772883654491948500,5.658948486328125,8.879166603088379,1.160519003868103,-0.9469595551490784
1772883654508570400,5.6755703125,7.995018482208252,1.347757339477539,-0.9930213689804077
1772883654525175300,5.69217529296875,7.247859954833984,1.669592022895813,-0.9577272534370422
1772883654541749800,5.708749755859375,7.046862602233887,2.004587173461914,-0.6861419081687927
1772883654558382600,5.725382568359375,7.375277519226074,2.2067806720733643,-0.3565305769443512
1772883654574991000,5.7419912109375,7.825726509094238,2.355733871459961,0.1585244983434677
1772883654591589400,5.75858935546875,8.14815902709961,2.4460630416870117,0.6831508874893188
1772883654608198100,5.7751982421875,8.522636413574219,2.4993033409118652,1.0689935684204102
1772883654624804400,5.791804443359375,8.984451293945312,2.4263222217559814,1.2191431522369385
1772883654641423600,5.808423583984375,9.456435203552246,2.45204496383667,1.073180913925171
1772883654658016000,5.82501611328125,9.562317848205566,2.42512583732605,1.0145567655563354
1772883654674612200,5.8416123046875,9.410971641540527,2.557927370071411,0.9547362327575684
1772883654691227400,5.858227294921875,9.467801094055176,2.8079774379730225,0.898504912853241
1772883654707828200,5.874828125,9.363713264465332,3.0029923915863037,0.867398202419281
1772883654724420900,5.8914208984375,9.172286987304688,3.2404799461364746,0.8410771489143372
1772883654741031200,5.90803125,8.868997573852539,3.3750762939453125,0.96370929479599
1772883654757644500,5.92464453125,8.676973342895508,3.4576287269592285,1.0941181182861328
1772883654774244900,5.941244873046875,8.720044136047363,3.5192439556121826,1.26699960231781
1772883654790856000,5.95785595703125,8.948558807373047,3.569493293762207,1.275374412536621
1772883654807459300,5.974459228515625,9.053842544555664,3.524029493331909,1.0785647630691528
1772883654824074000,5.991073974609375,9.005388259887695,3.4779677391052246,0.8344969153404236
1772883654840694800,6.00769482421875,8.683553695678711,3.4432718753814697,0.5587241053581238
1772883654857274600,6.024274658203125,8.387441635131836,3.576073408126831,0.3032902777194977
1772883654873876200,6.040876220703125,8.190033912658691,3.8434712886810303,0.14835500717163086
1772883654890471000,6.057470947265625,7.919046401977539,4.209573268890381,0.03290131315588951
1772883654907075600,6.07407568359375,7.852047443389893,4.4482574462890625,0.029910283163189888
1772883654923682800,6.090682861328125,8.10389232635498,4.584648132324219,0.09212367236614227
1772883654940273000,6.10727294921875,8.195417404174805,4.607978343963623,0.27337998151779175
1772883654956891400,6.123891357421875,8.192426681518555,4.586442947387695,0.5222335457801819
1772883654973495800,6.140495849609375,8.456833839416504,4.564907550811768,0.6161518096923828
1772883654990101200,6.157101318359375,9.013762474060059,4.6163530349731445,0.35473597049713135
1772883655006723600,6.1737236328125,9.386445045471191,4.367499351501465,0.22193430364131927
1772883655023340000,6.190340087890625,9.732806205749512,4.416552543640137,-0.06640082597732544
1772883655039917800,6.206917724609375,9.915857315063477,4.577469825744629,-0.14297115802764893
1772883655056534800,6.22353466796875,9.634101867675781,4.6061835289001465,0.02153540402650833
1772883655073140500,6.240140380859375,9.368498802185059,4.558925151824951,0.22372891008853912
1772883655089745200,6.2567451171875,9.306285858154297,4.172484397888184,0.5557330846786499
1772883655106350300,6.273350341796875,9.651450157165527,3.658625841140747,0.6837490797042847
1772883655122966800,6.289966796875,10.13599681854248,3.0939197540283203,0.729810893535614
1772883655139538700,6.30653857421875,10.162318229675293,2.7074787616729736,0.6406782865524292
1772883655156165600,6.32316552734375,9.880562782287598,2.5674986839294434,0.35413774847984314
1772883655172764400,6.339764404296875,9.353543281555176,2.572882652282715,0.23270200192928314
1772883655189381600,6.356381591796875,9.05563735961914,2.8528428077697754,0.12143574655056
1772883655205981700,6.372981689453125,9.045467376708984,3.1627132892608643,0.25782662630081177
1772883655222587000,6.3895869140625,9.056235313415527,3.4570305347442627,0.537188708782196
1772883655239174100,6.406174072265625,9.068199157714844,3.70767879486084,0.9170492887496948
1772883655255796000,6.4227958984375,8.885149002075195,3.8566319942474365,1.1724830865859985
1772883655272396800,6.439396728515625,8.520841598510742,3.961317777633667,1.3525429964065552
1772883655289012000,6.456011962890625,8.34437084197998,3.96789813041687,1.44945228099823
1772883655305611300,6.472611328125,8.663812637329102,3.7663028240203857,1.4075778722763062
1772883655322213000,6.489213134765625,9.305088996887207,3.4301111698150635,1.1910275220870972
1772883655338832600,6.50583251953125,9.500701904296875,3.1094729900360107,0.9200403094291687
1772883655355420000,6.522419921875,9.419944763183594,2.944368362426758,0.5365904569625854
1772883655372012800,6.5390126953125,9.112466812133789,2.9006991386413574,0.18364913761615753
1772883655388612900,6.55561279296875,8.787641525268555,2.9862427711486816,-0.19621145725250244
1772883655405215200,6.57221533203125,8.347960472106934,3.1645078659057617,-0.3409772217273712
1772883655421833500,6.58883349609375,7.813762187957764,3.373281717300415,-0.22133609652519226
1772883655438438400,6.6054384765625,7.5804619789123535,3.6598222255706787,0.09272187948226929
1772883655455043600,6.622043701171875,7.765905857086182,3.8500516414642334,0.4995017349720001
1772883655471651000,6.638651123046875,8.194819450378418,4.057629108428955,0.8291130661964417
1772883655488254200,6.655254150390625,8.398209571838379,4.2454657554626465,0.9678967595100403
1772883655504871400,6.671871337890625,8.214560508728027,4.2693939208984375,0.7489534616470337
1772883655521481500,6.6884814453125,7.931010723114014,4.249054908752441,0.5210371017456055
1772883655538079000,6.705078857421875,7.820342540740967,4.2245283126831055,0.40677985548973083
1772883655554692000,6.721692138671875,7.881359577178955,4.25084924697876,0.24406790733337402
1772883655571293000,6.73829296875,7.975277900695801,4.262813568115234,0.028115665540099144
1772883655587898400,6.7548984375,8.204390525817871,4.252045631408691,-0.12622138857841492
1772883655604502800,6.771502685546875,8.38265609741211,4.168296813964844,-0.17108681797981262
1772883655621108700,6.788108642578125,8.692526817321777,4.229313850402832,-0.17228323221206665
1772883655637722600,6.80472265625,9.147162437438965,4.24367094039917,-0.1459621787071228
1772883655654322700,6.82132275390625,9.114859580993652,4.1760735511779785,-0.16031911969184875
1772883655670919700,6.837919677734375,8.96231746673584,4.164109706878662,-0.049651071429252625
1772883655687533300,6.854533203125,9.062217712402344,4.292125701904297,0.2470589429140091
1772883655704133000,6.871133056640625,9.5324068069458,4.347160339355469,0.5509474277496338
1772883655720739000,6.887739013671875,10.067203521728516,4.264608383178711,0.8679963946342468
1772883655737343000,6.904343017578125,10.422536849975586,4.191627025604248,0.898504912853241
1772883655753949700,6.92094970703125,10.437492370605469,4.097708702087402,0.6921239495277405
1772883655770547700,6.937547607421875,10.302896499633789,4.022335052490234,0.3577269911766052
1772883655787165400,6.95416552734375,10.208977699279785,3.7944185733795166,0.02632104977965355
1772883655803764200,6.97076416015625,10.289137840270996,3.7501513957977295,-0.34277185797691345
1772883655820369400,6.987369384765625,10.268199920654297,3.799204111099243,-0.48574298620224
1772883655836972500,7.00397265625,10.006784439086914,3.954737663269043,-0.5353940725326538
1772883655853583000,7.0205830078125,9.751948356628418,4.056432723999023,-0.41874396800994873
1772883655870163200,7.0371630859375,9.740582466125488,3.802793502807617,0.09631111472845078
1772883655886778600,7.053778564453125,10.304092407226562,3.273979663848877,0.6005984544754028
1772883655903380500,7.07038037109375,11.073385238647461,2.644068956375122,0.7926225066184998
1772883655919986200,7.086986083984375,11.518449783325195,2.029113531112671,0.5180460810661316
1772883655936591000,7.103591064453125,11.173883438110352,1.6091731786727905,-0.0526420995593071
1772883655953196000,7.120196044921875,10.158130645751953,1.4638092517852783,-0.6119644045829773
1772883655969801200,7.13680126953125,9.108877182006836,1.7084753513336182,-0.9056833982467651
1772883655986410000,7.153409912109375,8.522636413574219,2.108076810836792,-0.8039883971214294
1772883656003025700,7.170025634765625,8.373085021972656,2.5016961097717285,-0.5706881880760193
1772883656019630800,7.186630859375,8.659625053405762,2.6500511169433594,-0.2267199456691742
1772883656036232400,7.203232421875,8.874979019165039,2.496910333633423,0.07238288223743439
1772883656052812800,7.219812744140625,8.915657043457031,2.2360928058624268,0.39062830805778503
1772883656069449700,7.23644970703125,9.120243072509766,2.032702922821045,0.38763725757598877
1772883656086047200,7.253047119140625,9.34875774383545,1.801795482635498,0.24646073579788208
1772883656102655500,7.269655517578125,9.657432556152344,1.6061822175979614,0.017946170642971992
1772883656119260200,7.28626025390625,9.70229721069336,1.4273186922073364,-0.24646073579788208
1772883656135865900,7.302865966796875,9.449256896972656,1.357926845550537,-0.34576287865638733
1772883656152466700,7.319466796875,9.254241943359375,1.594218134880066,-0.21415762603282928
1772883656169077200,7.3360771484375,8.952746391296387,1.8909281492233276,-0.01375873014330864
1772883656185684000,7.35268408203125,8.619544982910156,2.1206390857696533,0.10408778488636017
1772883656202286300,7.369286376953125,8.349156379699707,2.283949136734009,0.26500511169433594
1772883656218891000,7.38589111328125,8.22831916809082,2.489732027053833,0.6544370055198669
1772883656235497700,7.402497802734375,8.205587387084961,2.788236618041992,0.9918249845504761
1772883656252100400,7.419100341796875,8.3898344039917,2.9898319244384766,1.2215359210968018
1772883656268709400,7.43570947265625,8.636893272399902,3.1064820289611816,1.2592228651046753
1772883656285308400,7.452308349609375,8.801998138427734,3.1956145763397217,1.1635099649429321
1772883656301916200,7.468916259765625,8.871988296508789,3.2590243816375732,1.072582721710205
1772883656318521600,7.485521484375,8.86062240600586,3.3553354740142822,1.0498509407043457
1772883656335129000,7.502129150390625,9.169296264648438,3.487539052963257,1.072582721710205
1772883656351712500,7.51871240234375,9.607781410217285,3.5641093254089355,1.0516455173492432
1772883656368322000,7.535322021484375,9.80219841003418,3.6568312644958496,1.0606186389923096
1772883656384926200,7.55192626953125,9.594620704650879,3.7645082473754883,1.1060823202133179
1772883656401536500,7.56853662109375,9.278767585754395,3.8225340843200684,1.2179467678070068
1772883656418138600,7.585138671875,9.257830619812012,3.710669755935669,1.4135600328445435
1772883656434743300,7.601743408203125,9.642477035522461,3.5952160358428955,1.353141188621521
1772883656451344400,7.618344482421875,10.140782356262207,3.2997024059295654,1.2813565731048584
1772883656467957500,7.63495751953125,10.53200912475586,3.253640651702881,1.0253244638442993
1772883656484576000,7.651575927734375,10.197013854980469,3.245863914489746,0.9409775137901306
1772883656501179000,7.668178955078125,9.650253295898438,3.2554352283477783,0.7716853022575378
1772883656517766000,7.684765869140625,9.400203704833984,3.4755749702453613,0.49232324957847595
1772883656534371000,7.70137109375,9.256035804748535,3.507279872894287,0.4695914387702942
1772883656550989000,7.717989013671875,9.123832702636719,3.273381471633911,0.8177471160888672
1772883656567598000,7.73459814453125,9.016156196594238,2.954537868499756,1.0600204467773438
1772883656584207400,7.751207275390625,9.223134994506836,2.688336133956909,1.1527422666549683
1772883656600808700,7.76780859375,9.689735412597656,2.310270309448242,1.1904292106628418
1772883656617412900,7.784412841796875,10.006186485290527,1.970489501953125,1.0091729164123535
1772883656634014200,7.80101416015625,10.094121932983398,1.7306089401245117,0.6239284873008728
1772883656650613000,7.817613037109375,9.832706451416016,1.5852450132369995,0.4378865361213684
1772883656667229200,7.834229248046875,9.841081619262695,1.6055840253829956,0.3086741268634796
1772883656683831300,7.850831298828125,9.884750366210938,1.5912270545959473,0.3565305769443512
1772883656700438300,7.867438232421875,9.958329200744629,1.8293129205703735,0.6496513485908508
1772883656717043500,7.88404345703125,9.970891952514648,2.108076810836792,1.1156535148620605
1772883656733640700,7.900640625,9.613762855529785,2.42512583732605,1.6217355728149414
1772883656750262800,7.9172626953125,9.226723670959473,2.7631118297576904,1.9567307233810425
1772883656766859000,7.93385888671875,9.029914855957031,2.851048231124878,2.0781664848327637
1772883656783464200,7.950464111328125,9.053842544555664,2.761915445327759,1.8287147283554077
1772883656800069600,7.967069580078125,9.027522087097168,2.5298118591308594,1.4967105388641357
1772883656816674000,7.983674072265625,8.994620323181152,2.341975212097168,1.0701899528503418
1772883656833284000,8.0002841796875,8.937192916870117,2.2809581756591797,0.8500502705574036
1772883656849863000,8.01686279296875,8.793622970581055,2.448455810546875,0.6699903607368469
1772883656866475800,8.033475830078125,8.5764741897583,2.536990165710449,0.6484549641609192
1772883656883081200,8.050081298828125,8.647661209106445,2.62313175201416,0.7585247755050659
1772883656899685600,8.066685546875,8.836095809936523,2.7966115474700928,0.849452018737793
1772883656916290800,8.083290771484375,8.816953659057617,2.819941520690918,0.916451096534729
1772883656932895700,8.099895751953126,8.659027099609375,2.8319056034088135,0.9463613629341125
1772883656949492200,8.1164921875,8.482556343078613,2.778067111968994,0.8656035661697388
1772883656966105900,8.13310595703125,8.38145923614502,2.7260231971740723,0.6556333899497986
1772883656982728700,8.149728759765624,8.405387878417969,2.6799614429473877,0.4875376224517822
1772883656999329800,8.166329833984374,8.529814720153809,2.630310297012329,0.3242274820804596
1772883657015932000,8.182931884765624,8.657830238342285,2.641676187515259,0.20338992774486542
1772883657032539000,8.199538818359375,8.672187805175781,2.599801778793335,0.09810572862625122
1772883657049150000,8.21614990234375,8.69491958618164,2.6297121047973633,-0.04546362906694412
1772883657065750000,8.23275,8.827720642089844,2.6464617252349854,-0.13698910176753998
1772883657082355700,8.249355712890624,8.96112060546875,2.6769702434539795,-0.18005990982055664
1772883657098960400,8.26596044921875,9.175278663635254,2.774477958679199,-0.1136590763926506
1772883657115565300,8.2825654296875,9.273384094238281,2.932404041290283,0.05922235921025276
1772883657132166400,8.29916650390625,9.223732948303223,3.060420274734497,0.10348957777023315
1772883657148780300,8.3157802734375,9.198010444641113,3.1513473987579346,0.07058826833963394
1772883657165380900,8.332380859375,9.475577354431152,3.16331148147583,0.1501496136188507
1772883657181986000,8.348986083984375,9.826126098632812,3.1657042503356934,0.3158525824546814
1772883657198591500,8.365591552734376,10.098908424377441,3.2105698585510254,0.46779683232307434
1772883657215196700,8.38219677734375,10.52662467956543,3.1148569583892822,0.4546363055706024
1772883657231797200,8.39879736328125,10.798809051513672,3.0101709365844727,0.1178465187549591
1772883657248406000,8.415406005859374,10.759326934814453,2.9970104694366455,-0.08793623000383377
1772883657264981000,8.43198095703125,10.62413215637207,3.0346972942352295,-0.17288143932819366
1772883657281617200,8.4486171875,10.52483081817627,3.187838077545166,-0.3242274820804596
1772883657298221800,8.465221923828125,10.299306869506836,3.2751760482788086,-0.1788634955883026
1772883657314826200,8.481826171875,10.14018440246582,3.387040376663208,0.004785645287483931
1772883657331411700,8.49841162109375,10.273584365844727,3.2201411724090576,0.11306086927652359
1772883657348027000,8.51502685546875,10.474580764770508,2.789433002471924,0.36670008301734924
1772883657364628200,8.531628173828125,10.767104148864746,2.213959217071533,0.28893333673477173
1772883657381233400,8.5482333984375,11.074581146240234,1.540379524230957,-0.03349951654672623
1772883657397838600,8.564838623046874,11.503495216369629,1.0211371183395386,-0.34576287865638733
1772883657414443800,8.58144384765625,11.49512004852295,0.5886343717575073,-0.6693921089172363
1772883657431044900,8.598044921875,11.079965591430664,0.41934216022491455,-1.0223335027694702
1772883657447657000,8.614656982421875,10.383055686950684,0.5234299302101135,-1.1754741668701172
1772883657464258800,8.6312587890625,9.711270332336426,0.8703892230987549,-1.1928220987319946
1772883657480881400,8.64788134765625,9.295517921447754,1.1282159090042114,-1.0785647630691528
1772883657497482800,8.664482666015624,9.208179473876953,1.231107234954834,-0.9481559991836548
1772883657514088000,8.681087890625,9.397810935974121,1.150349497795105,-0.7537391185760498
1772883657530688300,8.697688232421875,9.600004196166992,1.160519003868103,-0.5491527915000916
1772883657547302400,8.714302490234376,9.595816612243652,1.2059825658798218,-0.3002992272377014
1772883657563902700,8.73090283203125,9.356534957885742,1.236491084098816,-0.2267199456691742
1772883657580508000,8.7475078125,9.206384658813477,1.3351950645446777,-0.22013968229293823
1772883657597113000,8.764113037109375,9.108877182006836,1.4536397457122803,-0.17587246000766754
1772883657613718500,8.780718505859374,8.97248649597168,1.6372889280319214,-0.01136590726673603
1772883657630318300,8.797318359375,8.878568649291992,1.8646070957183838,0.19202402234077454
1772883657646932700,8.8139326171875,8.97667407989502,2.0315065383911133,0.35054850578308105
1772883657663534000,8.8305341796875,8.922237396240234,2.1403799057006836,0.4139583110809326
1772883657680139000,8.847138916015625,8.681758880615234,2.237887382507324,0.46360939741134644
1772883657696743200,8.8637431640625,8.411968231201172,2.36291241645813,0.600000262260437
1772883657713348600,8.8803486328125,8.315656661987305,2.475374937057495,0.7926225066184998
1772883657729949200,8.89694921875,8.203792572021484,2.6213371753692627,0.9284151792526245
1772883657746563000,8.91356298828125,8.158926963806152,2.7212376594543457,0.9290133714675903
1772883657763162600,8.93016259765625,8.041678428649902,2.830111026763916,0.9499505758285522
1772883657779770000,8.94677001953125,7.899305820465088,3.0107691287994385,0.8805587291717529
1772883657796374300,8.963374267578125,7.810771465301514,3.102294445037842,0.747757077217102
1772883657812979500,8.9799794921875,7.895716667175293,3.1507492065429688,0.7280163168907166
1772883657829568800,8.99656884765625,8.113463401794434,3.277568817138672,0.7854440212249756
1772883657846174000,9.013174072265626,8.522037506103516,3.411566972732544,0.722034215927124
1772883657862781200,9.02978125,8.831908226013184,3.477369546890259,0.6586244106292725
1772883657879386000,9.04638623046875,9.193822860717773,3.5437703132629395,0.6329016089439392
1772883657895991000,9.062990966796875,9.509675025939941,3.5473594665527344,0.6215356588363647
1772883657912595700,9.079595703125,9.80100154876709,3.5461630821228027,0.5724828243255615
1772883657929201400,9.096201416015624,10.158130645751953,3.397209882736206,0.5353940725326538
1772883657945806600,9.112806640625,10.62831974029541,3.2925238609313965,0.48454657196998596
1772883657962414600,9.12941455078125,11.09192943572998,3.308077335357666,0.39122650027275085
1772883657979029800,9.14602978515625,11.255837440490723,3.473181962966919,0.3002992272377014
1772883657995635500,9.162635498046875,11.097911834716797,3.659224033355713,0.14476576447486877
1772883658012241000,9.179240966796876,10.680961608886719,3.8434712886810303,-0.1381855010986328
1772883658028840700,9.1958408203125,10.38784122467041,3.738187074661255,0.11126625537872314
1772883658045454800,9.212454833984374,10.28195858001709,3.4737801551818848,0.6981059908866882
1772883658062055400,9.229055419921876,10.2418794631958,2.868396043777466,0.914058268070221
1772883658078660900,9.245660888671875,10.480563163757324,2.0267207622528076,0.5617151260375977
1772883658095265300,9.262265380859375,10.352546691894531,1.3112667798995972,0.12203395366668701
1772883658111871000,9.27887109375,9.88415241241455,0.9116654396057129,-0.17946170270442963
1772883658128471600,9.295471435546874,9.596415519714355,1.1820544004440308,-0.3002992272377014
1772883658145085400,9.31208544921875,9.269196510314941,1.5792629718780518,-0.1423729509115219
1772883658161686300,9.328686279296875,9.301499366760254,1.937588095664978,0.003589233849197626
1772883658178290700,9.345290771484375,9.89432144165039,2.0470597743988037,0.24526432156562805
1772883658194896100,9.361896240234374,10.74855899810791,2.0159530639648438,0.48873403668403625
1772883658211501600,9.37850146484375,11.075180053710938,2.0368902683258057,0.7357929348945618
1772883658228101600,9.3951015625,10.514062881469727,2.1206390857696533,0.849452018737793
1772883658244715800,9.4117158203125,9.89432144165039,2.290529489517212,0.9260223507881165
1772883658261316900,9.42831689453125,9.717252731323242,2.3306093215942383,1.0372886657714844
1772883658277922000,9.444922119140625,9.967901229858398,2.251646041870117,1.1114661693572998
1772883658294551800,9.4615517578125,9.987043380737305,2.204986095428467,0.9726824164390564
1772883658311114800,9.47811474609375,9.369096755981445,2.124826431274414,0.5928218364715576
1772883658327722800,9.49472265625,8.593822479248047,2.2857437133789062,0.35473597049713135
1772883658344325600,9.51132568359375,8.173882484436035,2.3982064723968506,0.07537391036748886
1772883658360936200,9.527936279296876,7.920841217041016,2.517249345779419,-0.1663011759519577
1772883658377538000,9.5445380859375,7.717451095581055,2.6398816108703613,-0.2356930375099182
1772883658394143500,9.5611435546875,7.343572616577148,2.857628345489502,-0.41874396800994873
1772883658410749000,9.5777490234375,7.375875949859619,2.8313074111938477,-0.6819544434547424
1772883658427353000,9.59435302734375,7.363313674926758,2.6937201023101807,-0.8171489238739014
1772883658443955200,9.610955078125,7.976474285125732,2.5872395038604736,-1.0079765319824219
