time,seconds_elapsed,z,y,x
1772883664753892000,0.24889208984375,1.4174308776855469,0.3115358352661133,0.34183335304260254
1772883664770511000,0.265510986328125,1.2522783279418945,0.4808371067047119,0.28396928310394287
1772883664787111000,0.28211083984375,1.8706111907958984,0.33926987648010254,0.15156710147857666
1772883664803721500,0.298721435546875,2.9770774841308594,0.07537460327148438,-0.026620864868164062
1772883664820309500,0.3153095703125,3.81027889251709,-0.0009620189666748047,-0.013698339462280273
1772883664836924400,0.33192431640625,4.100865364074707,0.1138758659362793,0.22480988502502441
1772883664853537000,0.348537109375,3.8753232955932617,0.378206729888916,0.6282217502593994
1772883664870141400,0.365141357421875,3.2546520233154297,0.7060642242431641,1.2226479053497314
1772883664886743300,0.381743408203125,2.893035888671875,0.8067841529846191,1.8743036985397339
1772883664903357200,0.398357177734375,2.569477081298828,0.5478494167327881,2.320159435272217
1772883664919940000,0.414940185546875,2.309947967529297,0.10073471069335938,2.5690016746520996
1772883664936561400,0.4315615234375,2.0223588943481445,-0.47230100631713867,2.581295967102051
1772883664953163500,0.44816357421875,1.4333295822143555,-1.0589065551757812,2.4454922676086426
1772883664969773600,0.464773681640625,0.691044807434082,-1.4488065242767334,2.1988120079040527
1772883664986372000,0.4813720703125,0.1608133316040039,-1.7088050842285156,2.0942468643188477
1772883665002981000,0.497981201171875,0.05957984924316406,-1.8596242666244507,2.255568504333496
1772883665019567600,0.514567626953125,0.029465675354003906,-2.005459785461426,2.4287052154541016
1772883665036188700,0.531188720703125,-0.07517051696777344,-2.140463352203369,2.52054500579834
1772883665052796400,0.54779638671875,-0.2635965347290039,-2.32452654838562,2.6424012184143066
1772883665069402000,0.564402099609375,-0.381561279296875,-2.4812567234039307,2.724407911300659
1772883665086004500,0.58100439453125,-0.40648651123046875,-2.538522243499756,2.814276695251465
1772883665102612000,0.597612060546875,-0.347198486328125,-2.5168309211730957,2.8852217197418213
1772883665119203300,0.614203369140625,-0.4508247375488281,-2.37428617477417,2.9269723892211914
1772883665135803400,0.630803466796875,-0.7360315322875977,-2.1993629932403564,2.9608445167541504
1772883665152413200,0.6474130859375,-0.9741296768188477,-2.0820789337158203,2.8968968391418457
1772883665169019000,0.664018798828125,-0.9535598754882812,-1.9966373443603516,2.814969539642334
1772883665185625900,0.6806259765625,-0.5146894454956055,-1.8915858268737793,2.7150230407714844
1772883665202228000,0.69722802734375,0.010617256164550781,-1.8005375862121582,2.5286941528320312
1772883665218821400,0.7138212890625,0.3646430969238281,-1.7499237060546875,2.2085013389587402
1772883665235440600,0.730440673828125,0.38541603088378906,-1.651869297027588,1.8229753971099854
1772883665252043800,0.747043701171875,0.31223487854003906,-1.4611797332763672,1.5358736515045166
1772883665268672500,0.763672607421875,0.16321563720703125,-1.2898774147033691,1.3766354322433472
1772883665285268200,0.780268310546875,0.028408050537109375,-1.1203398704528809,1.3556009531021118
1772883665301871900,0.796871826171875,0.026719093322753906,-1.0029349327087402,1.4089577198028564
1772883665318445300,0.8134453125,-0.03404045104980469,-0.9008955955505371,1.4265925884246826
1772883665335081000,0.8300810546875,-0.10967636108398438,-0.8862757682800293,1.2951287031173706
1772883665351677200,0.84667724609375,-0.2445077896118164,-0.8854484558105469,1.2168068885803223
1772883665368291600,0.86329150390625,-0.39091014862060547,-0.8678569793701172,1.1391029357910156
1772883665384882000,0.8798818359375,-0.6812314987182617,-0.8488550186157227,1.1066488027572632
1772883665401505300,0.89650537109375,-0.9699077606201172,-0.7959041595458984,1.1601941585540771
1772883665418104800,0.913104736328125,-1.202371597290039,-0.6544103622436523,1.2848759889602661
1772883665434722000,0.92972216796875,-1.4310684204101562,-0.5472245216369629,1.3098989725112915
1772883665451319800,0.94631982421875,-1.5587072372436523,-0.5134315490722656,1.1939057111740112
1772883665467921400,0.96292138671875,-1.5459189414978027,-0.560462474822998,0.96994549036026
1772883665484509700,0.979509765625,-1.3096399307250977,-0.5911717414855957,0.8320344090461731
1772883665501134300,0.99613427734375,-0.9823217391967773,-0.5194573402404785,0.7659435272216797
1772883665517724000,1.012723876953125,-0.6394262313842773,-0.45377683639526367,0.6878743171691895
1772883665534346500,1.029346435546875,-0.5347623825073242,-0.3004627227783203,0.7010059952735901
1772883665550947600,1.045947509765625,-0.413848876953125,-0.04958963394165039,0.8185988664627075
1772883665567556000,1.06255615234375,-0.2943449020385742,0.025672435760498047,0.9825924634933472
1772883665584144400,1.079144287109375,-0.03358936309814453,0.011393070220947266,1.1235339641571045
1772883665600762400,1.095762451171875,0.45368003845214844,0.045886993408203125,1.136596441268921
1772883665617353700,1.112353759765625,0.8634910583496094,0.13556957244873047,1.0332379341125488
1772883665633957000,1.12895703125,0.9789752960205078,0.17687177658081055,1.0516061782836914
1772883665650566400,1.14556640625,1.1062898635864258,0.2875485420227051,1.1827549934387207
1772883665667169800,1.162169677734375,1.3720483779907227,0.3892192840576172,1.528557538986206
1772883665683775500,1.178775390625,1.996983528137207,0.3509340286254883,1.9190609455108643
1772883665700383500,1.195383544921875,2.87874698638916,0.03501605987548828,2.117161989212036
1772883665716974800,1.211974853515625,3.348583221435547,-0.5098481178283691,2.1616969108581543
1772883665733590800,1.2285908203125,3.185929298400879,-1.078373908996582,2.116434097290039
1772883665750213600,1.245213623046875,2.606888771057129,-1.4541382789611816,1.7948763370513916
1772883665766813000,1.26181298828125,1.9824638366699219,-1.6032323837280273,1.3391423225402832
1772883665783404300,1.278404296875,1.3874311447143555,-1.643676996231079,1.0141912698745728
1772883665800012000,1.295011962890625,0.8440113067626953,-1.6321558952331543,0.7903344035148621
1772883665816613600,1.311613525390625,0.3682432174682617,-1.526576280593872,0.7243824005126953
1772883665833235700,1.328235595703125,-0.025951385498046875,-1.398510456085205,0.7036852836608887
1772883665849839400,1.34483935546875,-0.2191295623779297,-1.3242392539978027,0.6402816772460938
1772883665866443000,1.361443115234375,-0.24194717407226562,-1.3454532623291016,0.7393373250961304
1772883665883037000,1.378036865234375,-0.2443380355834961,-1.346787929534912,0.9273146986961365
1772883665899660500,1.39466064453125,-0.02602863311767578,-1.336388111114502,1.1689982414245605
1772883665916253200,1.411253173828125,0.29608726501464844,-1.3559741973876953,1.362808108329773
1772883665932865500,1.427865478515625,0.519618034362793,-1.3653321266174316,1.4023656845092773
1772883665949469400,1.444469482421875,0.7193765640258789,-1.4044227600097656,1.3150537014007568
1772883665966073600,1.461073486328125,0.9227638244628906,-1.5511620044708252,1.133122444152832
1772883665982670800,1.4776708984375,1.168330192565918,-1.73258638381958,0.93705153465271
1772883665999285800,1.49428564453125,1.2299623489379883,-1.8693819046020508,0.7957995533943176
1772883666015862300,1.5108623046875,0.9959068298339844,-1.900177001953125,0.7771495580673218
1772883666032497400,1.527497314453125,0.6497201919555664,-1.7917847633361816,0.88997882604599
1772883666049099500,1.544099609375,0.2875347137451172,-1.6532678604125977,1.0808666944503784
1772883666065723400,1.560723388671875,-0.008305549621582031,-1.5610508918762207,1.2498130798339844
1772883666082311700,1.577311767578125,-0.29145145416259766,-1.477104663848877,1.4083302021026611
1772883666098915300,1.593915283203125,-0.5206880569458008,-1.395770788192749,1.5237869024276733
1772883666115515100,1.61051513671875,-0.6864614486694336,-1.3287081718444824,1.650874376296997
1772883666132113700,1.62711376953125,-0.8743963241577148,-1.2723259925842285,1.6245908737182617
1772883666148718800,1.64371875,-1.1026554107666016,-1.1814889907836914,1.5940046310424805
1772883666165321500,1.660321533203125,-1.31585693359375,-0.9931023120880127,1.656178593635559
1772883666181931800,1.676931884765625,-1.2923402786254883,-0.8006000518798828,1.6841025352478027
1772883666198535700,1.69353564453125,-1.1462798118591309,-0.6547355651855469,1.7035326957702637
1772883666215131400,1.71013134765625,-1.0243539810180664,-0.49112391471862793,1.6587858200073242
1772883666231743500,1.726743408203125,-0.7323284149169922,-0.3021254539489746,1.580214023590088
1772883666248366300,1.743366455078125,-0.4326143264770508,-0.14351630210876465,1.627089500427246
1772883666264966700,1.759966552734375,-0.27594947814941406,-0.02775263786315918,1.6184382438659668
1772883666281573400,1.776573486328125,-0.14069843292236328,0.018617868423461914,1.500680685043335
1772883666298176300,1.79317626953125,0.04446601867675781,0.029808759689331055,1.4267340898513794
1772883666314749700,1.809749755859375,0.4278717041015625,0.08675885200500488,1.45564866065979
1772883666331388700,1.826388671875,0.9185600280761719,0.11949634552001953,1.4927977323532104
1772883666347991300,1.8429912109375,1.430206298828125,0.10069394111633301,1.5195562839508057
1772883666364597200,1.85959716796875,1.863962173461914,0.029103994369506836,1.3465059995651245
1772883666381187800,1.876187744140625,2.157132148742676,-0.030197620391845703,1.216347098350525
1772883666397830400,1.892830322265625,2.0613040924072266,-0.042191267013549805,1.3119640350341797
1772883666414397400,1.9093974609375,1.8428840637207031,-0.07872962951660156,1.5179903507232666
1772883666431017200,1.926017333984375,1.7775888442993164,-0.1093289852142334,1.864820122718811
1772883666447606800,1.942606689453125,1.7151002883911133,-0.17293834686279297,2.35317325592041
1772883666464227600,1.9592275390625,1.659377098083496,-0.35312819480895996,2.6851847171783447
1772883666480839200,1.975839111328125,1.3761329650878906,-0.7585313320159912,2.780764102935791
1772883666497424400,1.99242431640625,0.9753561019897461,-1.2370951175689697,2.696098566055298
1772883666514013000,2.009012939453125,0.650242805480957,-1.615735650062561,2.5031096935272217
1772883666530651400,2.0256513671875,0.5160818099975586,-1.8097072839736938,2.347893238067627
1772883666547253000,2.0422529296875,0.6528253555297852,-1.9175639152526855,2.311922550201416
1772883666563858000,2.05885791015625,0.8127117156982422,-2.0239994525909424,2.1250147819519043
1772883666580448300,2.0754482421875,0.5404787063598633,-2.177107334136963,1.932389736175537
1772883666597084000,2.092083984375,0.17418575286865234,-2.2012569904327393,1.8052282333374023
1772883666613673700,2.108673828125,-0.014837265014648438,-2.1224589347839355,1.8696506023406982
1772883666630266400,2.125266357421875,0.07972049713134766,-1.9513111114501953,2.0741424560546875
1772883666646869800,2.141869873046875,-0.05038928985595703,-1.7020286321640015,2.3588480949401855
1772883666663463200,2.158463134765625,-0.28920555114746094,-1.4189121723175049,2.6138362884521484
1772883666680081200,2.1750810546875,-0.35978221893310547,-1.2327556610107422,2.9078798294067383
1772883666696685300,2.191685302734375,-0.19326496124267578,-1.115297555923462,3.123887538909912
1772883666713283000,2.208282958984375,0.13146495819091797,-1.0513594150543213,3.2109029293060303
1772883666729913600,2.22491357421875,0.38602733612060547,-1.04164457321167,3.0946311950683594
1772883666746515200,2.24151513671875,0.47254180908203125,-1.077021598815918,2.8123602867126465
1772883666763118800,2.258118896484375,0.27968883514404297,-1.115952491760254,2.497574806213379
1772883666779709400,2.27470947265625,0.04782867431640625,-1.0675442218780518,2.231539487838745
1772883666796328000,2.291327880859375,-0.1384410858154297,-0.9511895179748535,1.9507577419281006
1772883666812922000,2.307922119140625,-0.31038379669189453,-0.8256692886352539,1.5881736278533936
1772883666829533700,2.32453369140625,-0.5256853103637695,-0.6795737743377686,1.2634698152542114
1772883666846132700,2.3411328125,-0.7739152908325195,-0.6083765029907227,1.2060511112213135
1772883666862750200,2.357750244140625,-0.8477716445922852,-0.41965341567993164,1.1961578130722046
1772883666879357200,2.374357177734375,-0.7103042602539062,-0.25945281982421875,1.2881348133087158
1772883666895929600,2.3909296875,-0.43347835540771484,-0.16475939750671387,1.3444280624389648
1772883666912554200,2.40755419921875,-0.4790821075439453,-0.12297940254211426,1.2569389343261719
1772883666929170000,2.424169921875,-0.8138771057128906,-0.03715395927429199,1.0901336669921875
1772883666945774800,2.44077490234375,-1.20208740234375,0.08405280113220215,0.9312435388565063
1772883666962379500,2.457379638671875,-1.5969057083129883,0.17792248725891113,0.8620764017105103
1772883666978970400,2.473970458984375,-1.9207301139831543,0.3411870002746582,0.824122428894043
1772883666995613200,2.49061328125,-1.812345027923584,0.47493767738342285,0.739676833152771
1772883667012216000,2.507216064453125,-1.5119409561157227,0.4491758346557617,0.6654419898986816
1772883667028800000,2.523800048828125,-1.2436389923095703,0.40728306770324707,0.5387260913848877
1772883667045406500,2.540406494140625,-0.959747314453125,0.35803890228271484,0.47069764137268066
1772883667062011400,2.557011474609375,-0.532933235168457,0.25420618057250977,0.4155125617980957
1772883667078604800,2.573604736328125,0.11504840850830078,0.061090707778930664,0.3614717721939087
1772883667095219000,2.590218994140625,0.9825639724731445,0.009078502655029297,0.14557230472564697
1772883667111799600,2.606799560546875,1.6412057876586914,0.1286318302154541,-0.008227944374084473
1772883667128417500,2.62341748046875,1.9053306579589844,0.30151844024658203,0.05988657474517822
1772883667145023000,2.64002294921875,2.014744758605957,0.44620275497436523,0.34824562072753906
1772883667161628700,2.656628662109375,2.1163740158081055,0.5595219135284424,0.9255903959274292
1772883667178235100,2.673235107421875,2.7593698501586914,0.7135670185089111,1.3934568166732788
1772883667194836200,2.689836181640625,3.807774543762207,0.36358046531677246,1.8217203617095947
1772883667211443500,2.706443359375,4.641090393066406,-0.41907787322998047,2.0843939781188965
1772883667228063700,2.723063720703125,4.743649482727051,-1.1761586666107178,1.8760547637939453
1772883667244670700,2.739670654296875,3.9965295791625977,-1.7609316110610962,1.4245914220809937
1772883667261255700,2.756255615234375,2.6421079635620117,-1.9689855575561523,0.9254130721092224
1772883667277864400,2.772864501953125,1.2053756713867188,-1.840571641921997,0.555448055267334
1772883667294486300,2.789486328125,-0.051609039306640625,-1.6477395296096802,0.470869779586792
1772883667311071000,2.806071044921875,-0.9605245590209961,-1.3777422904968262,0.5949729681015015
1772883667327681000,2.822680908203125,-1.216883659362793,-1.1544420719146729,0.6971831321716309
1772883667344280800,2.83928076171875,-0.9556570053100586,-1.1404359340667725,0.789692223072052
1772883667360901400,2.8559013671875,-0.5099687576293945,-1.1141763925552368,0.8419555425643921
1772883667377510000,2.872510009765625,-0.13395309448242188,-1.176621675491333,1.0223398208618164
1772883667394110500,2.8891103515625,0.25595569610595703,-1.2126466035842896,1.1916558742523193
1772883667410719200,2.90571923828125,0.5995750427246094,-1.338364601135254,1.2512023448944092
1772883667427332900,2.922332763671875,0.6961956024169922,-1.5666604042053223,1.0881255865097046
1772883667443921700,2.938921630859375,0.5978384017944336,-1.8299150466918945,0.728866696357727
1772883667460527900,2.95552783203125,0.3204183578491211,-2.071282386779785,0.3989718556404114
1772883667477114400,2.9721142578125,-0.0650177001953125,-2.1276979446411133,0.22880029678344727
1772883667493756200,2.988756103515625,-0.41308021545410156,-1.9689509868621826,0.2093285322189331
1772883667510351000,3.00535107421875,-0.6152067184448242,-1.8013114929199219,0.35638153553009033
1772883667526951000,3.021950927734375,-0.8507966995239258,-1.6832231283187866,0.6062780022621155
1772883667543543300,3.038543212890625,-1.0825481414794922,-1.5256896018981934,0.8852882385253906
1772883667560159200,3.0551591796875,-1.0587654113769531,-1.3942303657531738,1.1717734336853027
1772883667576761600,3.07176171875,-0.8570127487182617,-1.3467090129852295,1.4241620302200317
1772883667593372400,3.088372314453125,-0.7946681976318359,-1.3575046062469482,1.5285000801086426
1772883667609963000,3.104962890625,-0.7831783294677734,-1.31504225730896,1.5069857835769653
1772883667626569200,3.1215693359375,-0.6486749649047852,-1.2572579383850098,1.4224028587341309
1772883667643176400,3.138176513671875,-0.5613498687744141,-1.177140474319458,1.380947232246399
1772883667659780400,3.1547802734375,-0.5131101608276367,-1.0264790058135986,1.3749079704284668
1772883667676376300,3.171376220703125,-0.3986959457397461,-0.8644895553588867,1.4437681436538696
1772883667692991000,3.187990966796875,-0.22303485870361328,-0.6692023277282715,1.5769444704055786
1772883667709613300,3.20461328125,0.041606903076171875,-0.49458956718444824,1.754763126373291
1772883667726214400,3.22121435546875,0.35669803619384766,-0.38809657096862793,2.044954776763916
1772883667742819800,3.23781982421875,0.5890827178955078,-0.31807661056518555,2.23217511177063
1772883667759425000,3.254425048828125,0.9346752166748047,-0.36350250244140625,2.329406976699829
1772883667776027000,3.27102685546875,1.2657203674316406,-0.5496008396148682,2.357581615447998
1772883667792635100,3.28763525390625,1.5092248916625977,-0.7030904293060303,2.1782777309417725
1772883667809236700,3.30423681640625,1.5792779922485352,-0.7897529602050781,1.9091029167175293
1772883667825877200,3.320877197265625,1.4848194122314453,-0.8152673244476318,1.6065096855163574
1772883667842450400,3.337450439453125,1.5046873092651367,-0.7676577568054199,1.299509048461914
1772883667859031300,3.35403125,1.4291324615478516,-0.7003428936004639,1.136885166168213
1772883667875649000,3.37064892578125,1.2660026550292969,-0.581373929977417,1.0667824745178223
1772883667892251400,3.38725146484375,1.2330865859985352,-0.48751091957092285,1.132860541343689
1772883667908840000,3.40383984375,1.2803239822387695,-0.49918055534362793,1.2575057744979858
1772883667925464800,3.42046484375,1.339029312133789,-0.5637960433959961,1.3850951194763184
1772883667942067200,3.437067138671875,1.5878353118896484,-0.8041303157806396,1.4857182502746582
1772883667958672100,3.453672119140625,1.7347602844238281,-1.0511622428894043,1.4627853631973267
1772883667975284200,3.4702841796875,1.908696174621582,-1.3307381868362427,1.507279634475708
1772883667991882200,3.48688232421875,1.747359275817871,-1.551619052886963,1.6234087944030762
1772883668008487700,3.50348779296875,1.3014488220214844,-1.66971755027771,1.6515287160873413
1772883668025109500,3.520109619140625,0.8071184158325195,-1.777587890625,1.5568573474884033
1772883668041711600,3.536711669921875,0.30385684967041016,-1.8398981094360352,1.4918663501739502
1772883668058316000,3.55331591796875,-0.19162845611572266,-1.8418670892715454,1.5828897953033447
1772883668074922000,3.569921875,-0.6179409027099609,-1.7340645790100098,1.762292504310608
1772883668091523600,3.586523681640625,-0.9405899047851562,-1.642209768295288,1.9928500652313232
1772883668108118500,3.603118408203125,-1.141707420349121,-1.5926610231399536,2.178100824356079
1772883668124723000,3.619722900390625,-1.298898696899414,-1.654809832572937,2.2362020015716553
1772883668141328100,3.636328125,-1.283346176147461,-1.7945194244384766,2.0982847213745117
1772883668157933300,3.652933349609375,-1.2161760330200195,-1.8951584100723267,1.8522157669067383
1772883668174535000,3.669534912109375,-1.1893720626831055,-1.903791069984436,1.5275228023529053
1772883668191143200,3.68614306640625,-1.299243450164795,-1.8170111179351807,1.2221029996871948
1772883668207763000,3.702762939453125,-1.538167953491211,-1.6213972568511963,0.9489249587059021
1772883668224370400,3.719370361328125,-1.7323837280273438,-1.321253776550293,0.7096782326698303
1772883668240937500,3.7359375,-1.6669502258300781,-0.9952385425567627,0.6848607063293457
1772883668257577000,3.752576904296875,-1.3004331588745117,-0.6834707260131836,0.785129725933075
1772883668274182100,3.76918212890625,-0.8790912628173828,-0.5032308101654053,0.8625092506408691
1772883668290787300,3.785787353515625,-0.4503364562988281,-0.33087754249572754,0.8189135193824768
1772883668307395000,3.80239501953125,-0.04080009460449219,-0.22690653800964355,0.6812594532966614
1772883668323995600,3.81899560546875,0.23832416534423828,-0.2020728588104248,0.4277762174606323
1772883668340603000,3.835602783203125,0.38701629638671875,-0.17768263816833496,0.13689470291137695
1772883668357207600,3.85220751953125,0.49781131744384766,-0.0854489803314209,-0.02529323101043701
1772883668373796600,3.868796630859375,0.5406856536865234,0.07767009735107422,0.030771732330322266
1772883668390442000,3.88544189453125,0.5568666458129883,0.289684534072876,0.06441664695739746
1772883668407016400,3.902016357421875,0.7918720245361328,0.3958280086517334,-0.01094067096710205
1772883668423635200,3.91863525390625,1.1605558395385742,0.38416361808776855,-0.09433066844940186
1772883668440217300,3.93521728515625,1.618178367614746,0.3600788116455078,-0.15659451484680176
1772883668456829700,3.95182958984375,1.9891223907470703,0.2806706428527832,-0.1505110263824463
1772883668473435600,3.968435546875,2.268350601196289,0.12241721153259277,-0.020660996437072754
1772883668490049000,3.985049072265625,2.58676815032959,0.08232998847961426,0.004649162292480469
1772883668506653700,4.00165380859375,2.9528980255126953,0.21791601181030273,-0.0483698844909668
1772883668523258600,4.018258544921875,3.163548469543457,0.22687554359436035,0.22050344944000244
1772883668539864000,4.034864013671875,3.225461959838867,0.31035590171813965,0.642880916595459
1772883668556468700,4.05146875,3.0641908645629883,0.35921430587768555,1.076794981956482
1772883668573070600,4.068070556640625,2.6676855087280273,0.24616193771362305,1.3836337327957153
1772883668589662200,4.084662109375,2.2886581420898438,0.05137753486633301,1.4598724842071533
1772883668606270500,4.1012705078125,2.1197729110717773,-0.3320927619934082,1.463719129562378
1772883668622875600,4.117875732421875,2.3008317947387695,-0.7126998901367188,1.593233585357666
1772883668639480800,4.134480712890625,2.386394500732422,-1.2738444805145264,1.732250452041626
1772883668656085200,4.151085205078125,1.9661827087402344,-1.8660494089126587,1.6415959596633911
1772883668672678700,4.1676787109375,1.243906021118164,-2.285167694091797,1.378097414970398
1772883668689313000,4.18431298828125,0.4026517868041992,-2.563542366027832,1.1692278385162354
1772883668705918000,4.20091796875,-0.5338077545166016,-2.7629804611206055,1.1265947818756104
1772883668722516500,4.2175166015625,-1.4172773361206055,-2.810014486312866,1.086686611175537
1772883668739108000,4.234108154296875,-2.051671028137207,-2.6867613792419434,1.185205101966858
1772883668755729700,4.250729736328125,-2.310776710510254,-2.463252544403076,1.383690595626831
1772883668772312300,4.267312255859375,-2.2824087142944336,-2.2985994815826416,1.6163560152053833
1772883668788940000,4.28393994140625,-2.041998863220215,-2.2133595943450928,1.730796456336975
1772883668805540900,4.300540771484375,-1.761157512664795,-2.19158935546875,1.7004241943359375
1772883668822154200,4.317154296875,-1.5251407623291016,-2.185598134994507,1.6573052406311035
1772883668838760700,4.3337607421875,-0.8982572555541992,-2.065307140350342,1.4998358488082886
1772883668855360500,4.350360595703125,-0.22043514251708984,-2.049128532409668,1.2850159406661987
1772883668871993600,4.36699365234375,0.1827859878540039,-2.1060798168182373,0.9436192512512207
1772883668888570600,4.383570556640625,0.21226787567138672,-2.2306110858917236,0.6343274116516113
1772883668905172000,4.400171875,0.01665973663330078,-2.124169111251831,0.5661112070083618
1772883668921780200,4.4167802734375,-0.29281044006347656,-1.8532826900482178,0.8205777406692505
1772883668938375400,4.43337548828125,-0.47023773193359375,-1.5642380714416504,1.0103774070739746
1772883668954990600,4.449990478515625,-0.41230297088623047,-1.381272554397583,1.1189157962799072
1772883668971576300,4.466576416015625,-0.19893741607666016,-1.365199327468872,1.1443928480148315
1772883668988201200,4.483201171875,-0.028062820434570312,-1.5010652542114258,1.2529714107513428
1772883669004801800,4.4998017578125,-0.018001556396484375,-1.5385419130325317,1.3604724407196045
1772883669021389600,4.5163896484375,-0.1634845733642578,-1.4472603797912598,1.440110683441162
1772883669038002000,4.533001953125,-0.4389200210571289,-1.321211576461792,1.4251872301101685
1772883669054621000,4.549620849609375,-0.5683412551879883,-1.128295660018921,1.2768089771270752
1772883669071209200,4.566209228515625,-0.5536403656005859,-1.047910213470459,1.1498057842254639
1772883669087814100,4.582814208984375,-0.38761234283447266,-0.8676409721374512,1.1195602416992188
1772883669104426000,4.599426025390625,-0.10822582244873047,-0.6139369010925293,1.2257380485534668
1772883669121025000,4.61602490234375,0.1197042465209961,-0.3724253177642822,1.3601664304733276
1772883669137633000,4.632633056640625,0.3042564392089844,-0.18725061416625977,1.4254292249679565
1772883669154238000,4.649238037109375,0.3892688751220703,-0.05749201774597168,1.379499912261963
1772883669170829300,4.665829345703125,0.4392976760864258,0.007292985916137695,1.3738458156585693
1772883669187465500,4.682465576171875,0.7046470642089844,0.015102148056030273,1.420292615890503
1772883669204064000,4.69906396484375,1.2568721771240234,-0.08759880065917969,1.4862945079803467
1772883669220674600,4.715674560546875,1.770308494567871,-0.27380824089050293,1.4143109321594238
1772883669237261000,4.732260986328125,2.065084457397461,-0.4570446014404297,1.1870033740997314
1772883669253898000,4.74889794921875,2.026625633239746,-0.5389354228973389,0.9017884731292725
1772883669270488000,4.765488037109375,1.706141471862793,-0.5261125564575195,0.6891041994094849
1772883669287092200,4.78209228515625,1.3634967803955078,-0.3246498107910156,0.5703977346420288
1772883669303693300,4.798693359375,1.0722103118896484,-0.15992522239685059,0.5848748087882996
1772883669320306200,4.81530615234375,0.8042440414428711,-0.20631837844848633,0.6093471646308899
1772883669336891000,4.831890869140625,0.8093938827514648,-0.3973567485809326,0.6192009449005127
1772883669353503200,4.848503173828125,0.8410091400146484,-0.6528315544128418,0.7617892026901245
1772883669370109200,4.865109130859375,1.0323238372802734,-0.8682212829589844,0.841469943523407
1772883669386722600,4.88172265625,1.218043327331543,-1.0686372518539429,0.8020268678665161
1772883669403307500,4.8983076171875,1.2448091506958008,-1.257460355758667,0.7037085294723511
1772883669419936500,4.9149365234375,1.167140007019043,-1.4266717433929443,0.7334738969802856
1772883669436521700,4.931521728515625,1.1868257522583008,-1.5483862161636353,0.9357469081878662
1772883669453142300,4.948142333984375,1.0748491287231445,-1.517288327217102,1.1832430362701416
1772883669469748700,4.964748779296875,0.7503337860107422,-1.3738982677459717,1.4085493087768555
1772883669486354000,4.98135400390625,0.4937019348144531,-1.2523397207260132,1.6837193965911865
1772883669502953200,4.997953125,0.27382755279541016,-1.214667797088623,2.000455379486084
1772883669519567000,5.014567138671875,0.15242767333984375,-1.2093174457550049,2.20269513130188
1772883669536141600,5.0311416015625,0.1186075210571289,-1.2335712909698486,2.255983352661133
1772883669552762400,5.047762451171875,0.10221004486083984,-1.39987051486969,2.141273021697998
1772883669569361700,5.064361572265625,0.13125038146972656,-1.5936938524246216,1.824001431465149
1772883669585969700,5.0809697265625,0.07739067077636719,-1.735530138015747,1.6096829175949097
1772883669602572300,5.097572265625,-0.1387176513671875,-1.7666231393814087,1.5699687004089355
1772883669619180500,5.1141806640625,-0.4165639877319336,-1.6229523420333862,1.5759483575820923
1772883669635785200,5.13078515625,-0.7505178451538086,-1.4339927434921265,1.538716435432434
1772883669652375300,5.147375244140625,-1.197340965270996,-1.2880496978759766,1.4496785402297974
1772883669668993000,5.163992919921875,-1.7052440643310547,-1.111690640449524,1.3429949283599854
1772883669685617700,5.18061767578125,-2.0816917419433594,-0.9177932739257812,1.2666490077972412
1772883669702215700,5.197215576171875,-2.166532516479492,-0.7443547248840332,1.2600371837615967
1772883669718828000,5.213828125,-1.9648237228393555,-0.6018857955932617,1.3622627258300781
1772883669735430000,5.230429931640625,-1.6404590606689453,-0.5112996101379395,1.5117560625076294
1772883669752008200,5.24700830078125,-1.3149805068969727,-0.411344051361084,1.5452349185943604
1772883669768635400,5.263635498046875,-1.123800277709961,-0.3137507438659668,1.5533090829849243
1772883669785248500,5.28024853515625,-0.9870567321777344,-0.17191529273986816,1.4413187503814697
1772883669801834500,5.29683447265625,-0.8711490631103516,-0.04236721992492676,1.2261251211166382
1772883669818457900,5.313457763671875,-0.7179927825927734,0.06798315048217773,1.0396463871002197
1772883669835076600,5.33007666015625,-0.5649099349975586,0.179612398147583,0.9188936948776245
1772883669851648000,5.34664794921875,-0.3399372100830078,0.31630611419677734,0.8303061723709106
1772883669868253400,5.36325341796875,-0.025442123413085938,0.42165207862854004,0.758136510848999
1772883669884875300,5.379875244140625,0.4545450210571289,0.4680800437927246,0.6693739891052246
1772883669901475800,5.396475830078125,1.1203460693359375,0.4086756706237793,0.5595283508300781
1772883669918089200,5.413089111328125,1.7736930847167969,0.3092234134674072,0.46066296100616455
1772883669934675200,5.42967529296875,2.383403778076172,0.20894932746887207,0.4435998201370239
1772883669951289000,5.4462890625,2.862271308898926,0.1949446201324463,0.44977647066116333
1772883669967907000,5.462906982421875,2.874643325805664,0.3937668800354004,0.5179623365402222
1772883669984509200,5.47950927734375,2.5547895431518555,0.6304876804351807,0.5884239673614502
1772883670001113300,5.49611328125,2.3698291778564453,0.802396297454834,0.5464544296264648
1772883670017713200,5.512713134765625,2.2593469619750977,0.7668032646179199,0.5124423503875732
1772883670034305800,5.529305908203125,2.3413095474243164,0.5909066200256348,0.7454974055290222
1772883670050922800,5.5459228515625,2.902454376220703,0.4129302501678467,1.1985948085784912
1772883670067517000,5.562516845703125,3.592501640319824,0.1063162088394165,1.5650311708450317
1772883670084122000,5.5791220703125,3.9383487701416016,-0.3468761444091797,1.6014676094055176
1772883670100725500,5.5957255859375,3.883833885192871,-0.7764941453933716,1.2970173358917236
1772883670117334300,5.612334228515625,3.4898576736450195,-1.2206217050552368,0.9255727529525757
1772883670133937700,5.628937744140625,2.7882328033447266,-1.649492621421814,0.7065256834030151
1772883670150542300,5.645542236328125,2.1347227096557617,-1.9775668382644653,0.6568070650100708
1772883670167151400,5.6621513671875,1.2988567352294922,-2.3075568675994873,0.7834334969520569
1772883670183766500,5.6787666015625,0.3529977798461914,-2.429816961288452,0.9013612270355225
1772883670200364500,5.695364501953125,-0.4750404357910156,-2.424041509628296,0.9834046363830566
1772883670216983300,5.7119833984375,-1.0566473007202148,-2.556849241256714,1.0746663808822632
1772883670233554200,5.72855419921875,-1.5429000854492188,-2.8168530464172363,1.2544454336166382
1772883670250186200,5.745186279296875,-1.9852409362792969,-2.9815003871917725,1.3584392070770264
1772883670266758400,5.76175830078125,-2.3815011978149414,-2.957792043685913,1.3828282356262207
1772883670283397400,5.7783974609375,-2.6546239852905273,-2.803138494491577,1.3016455173492432
1772883670300006000,5.795005859375,-2.7363996505737305,-2.6033759117126465,1.0719808340072632
1772883670316607000,5.81160693359375,-2.6653242111206055,-2.366565465927124,0.7764844298362732
1772883670333195500,5.828195556640625,-2.406005859375,-2.127899646759033,0.42870354652404785
1772883670349816800,5.84481689453125,-1.9657535552978516,-1.9634695053100586,0.11906647682189941
1772883670366416600,5.861416748046875,-1.4365921020507812,-1.7848610877990723,-0.03760385513305664
1772883670383033000,5.878033203125,-1.0535945892333984,-1.5220062732696533,-0.024601519107818604
1772883670399628500,5.894628662109375,-0.7150058746337891,-1.230381727218628,0.1959599256515503
1772883670416241400,5.911241455078125,-0.3517570495605469,-0.9946668148040771,0.5543038845062256
1772883670432814000,5.92781396484375,0.0764169692993164,-0.7949302196502686,0.855151355266571
1772883670449444000,5.944444091796875,0.4791860580444336,-0.6501789093017578,0.9071217775344849
1772883670466056400,5.961056396484375,0.8744611740112305,-0.6566667556762695,0.9021744728088379
1772883670482635300,5.97763525390625,1.1601028442382812,-0.7642028331756592,0.9251772165298462
1772883670499254500,5.994254638671875,1.2536945343017578,-0.8003683090209961,0.8741948008537292
1772883670515876400,6.01087646484375,1.038315773010254,-0.7536976337432861,0.9193758964538574
1772883670532456200,6.027456298828125,0.47294044494628906,-0.5645639896392822,1.0431817770004272
1772883670549061000,6.04406103515625,-0.18990516662597656,-0.3468482494354248,1.118536353111267
1772883670565670000,6.060669921875,-0.5931777954101562,-0.20869064331054688,1.1917741298675537
1772883670582274000,6.077274169921875,-0.7262334823608398,-0.14426016807556152,1.234506368637085
1772883670598876400,6.09387646484375,-0.6230144500732422,-0.08558320999145508,1.147245168685913
1772883670615487700,6.11048779296875,-0.2741661071777344,-0.09868431091308594,1.0152125358581543
1772883670632076800,6.127076904296875,-0.014954566955566406,-0.17514991760253906,1.0210833549499512
1772883670648694300,6.1436943359375,0.13520240783691406,-0.14702296257019043,1.1076092720031738
1772883670665314800,6.160314697265625,0.2616004943847656,-0.02899789810180664,1.2112408876419067
1772883670681912300,6.176912353515625,0.3639106750488281,0.011827230453491211,1.1847295761108398
1772883670698529000,6.193529052734375,0.49890995025634766,0.06082510948181152,1.0201867818832397
1772883670715131400,6.21013134765625,0.7221803665161133,0.049976348876953125,0.8939695358276367
1772883670731721700,6.2267216796875,0.9350776672363281,0.06564021110534668,0.738990843296051
1772883670748335000,6.243335205078125,1.044325828552246,0.12158393859863281,0.623807966709137
1772883670764944400,6.2599443359375,0.9978475570678711,0.14483165740966797,0.6741601228713989
1772883670781548300,6.27654833984375,0.927978515625,0.059964656829833984,0.7699143886566162
1772883670798154200,6.293154296875,1.0916919708251953,-0.2661447525024414,0.9354221820831299
1772883670814763000,6.309762939453125,1.5659141540527344,-0.7455542087554932,1.1158486604690552
1772883670831349800,6.326349853515625,2.135432243347168,-1.2195446491241455,1.1988574266433716
1772883670847969000,6.342968994140625,2.4157800674438477,-1.6925969123840332,1.1611342430114746
1772883670864570000,6.359570068359375,2.3026580810546875,-1.9543935060501099,1.0207260847091675
1772883670881183200,6.376183349609375,1.8351402282714844,-2.0782904624938965,0.8758153319358826
1772883670897780000,6.392780029296875,1.2590007781982422,-2.0354621410369873,0.8094866275787354
1772883670914394400,6.409394287109375,0.7866544723510742,-1.8796565532684326,0.8129379749298096
1772883670930978300,6.425978271484375,0.47434425354003906,-1.631461262702942,0.8963906764984131
1772883670947600000,6.442599853515625,0.20113372802734375,-1.3860116004943848,1.1122187376022339
1772883670964201000,6.459200927734375,0.06165885925292969,-1.1540913581848145,1.327762484550476
1772883670980809700,6.475809814453125,-0.13999557495117188,-0.9729406833648682,1.4504811763763428
1772883670997419800,6.492419677734375,-0.4823436737060547,-0.7780213356018066,1.4382257461547852
1772883671014019000,6.50901904296875,-0.7053594589233398,-0.6202812194824219,1.4974734783172607
1772883671030609000,6.52560888671875,-0.7093896865844727,-0.5876560211181641,1.6592357158660889
1772883671047212500,6.542212646484375,-0.6646966934204102,-0.5882132053375244,1.6926465034484863
1772883671063805200,6.55880517578125,-0.5370845794677734,-0.6710619926452637,1.44303560256958
1772883671080421000,6.575421142578125,-0.22203636169433594,-0.8545279502868652,1.111696720123291
1772883671097031700,6.59203173828125,0.0671396255493164,-1.1160531044006348,0.7351803779602051
1772883671113636000,6.608635986328125,0.1829385757446289,-1.3846187591552734,0.30650052428245544
1772883671130253800,6.62525390625,0.07576465606689453,-1.5148601531982422,-0.08958601951599121
1772883671146847000,6.641846923828125,-0.15829181671142578,-1.4690067768096924,-0.3310880661010742
1772883671163465200,6.65846533203125,-0.47702598571777344,-1.170975923538208,-0.2828686833381653
1772883671180073000,6.675072998046875,-0.8126153945922852,-0.8335528373718262,-0.014136850833892822
1772883671196671000,6.6916708984375,-1.0219478607177734,-0.5189332962036133,0.2759714126586914
1772883671213286700,6.70828662109375,-0.9504489898681641,-0.3246169090270996,0.485119491815567
1772883671229878000,6.7248779296875,-0.6609201431274414,-0.23130106925964355,0.7431381940841675
1772883671246491000,6.741490966796875,-0.5008106231689453,-0.1249237060546875,1.008249044418335
1772883671263095800,6.758095703125,-0.5689125061035156,0.03882408142089844,1.1378233432769775
1772883671279701200,6.774701171875,-0.6292181015014648,0.1272730827331543,1.1705656051635742
1772883671296306700,6.791306640625,-0.7672939300537109,0.09448623657226562,1.1423704624176025
1772883671312910300,6.807910400390625,-0.8912744522094727,0.11705732345581055,1.0248727798461914
1772883671329516800,6.824516845703125,-0.8093175888061523,0.22005224227905273,0.9719241857528687
1772883671346145500,6.8411455078125,-0.1822681427001953,0.3196220397949219,1.028526782989502
1772883671362730800,6.857730712890625,0.3264732360839844,0.3327517509460449,1.0941187143325806
1772883671379323100,6.8743232421875,0.4578580856323242,0.38893651962280273,1.0552946329116821
1772883671395940900,6.89094091796875,0.22776222229003906,0.4589676856994629,0.9083917140960693
1772883671412542000,6.9075419921875,0.053223609924316406,0.5085835456848145,0.8353555798530579
1772883671429146400,6.924146484375,-0.02098560333251953,0.4800729751586914,0.969470739364624
1772883671445748500,6.94074853515625,0.1895294189453125,0.5694179534912109,1.2055332660675049
1772883671462355000,6.95735498046875,0.5668401718139648,0.8386931419372559,1.2207552194595337
1772883671478959900,6.9739599609375,0.901616096496582,0.9588813781738281,1.0937161445617676
1772883671495570700,6.99057080078125,0.9117641448974609,0.7956962585449219,1.0513660907745361
1772883671512171800,7.007171875,1.0006093978881836,0.7157735824584961,0.8156481385231018
1772883671528759800,7.023759765625,1.1747608184814453,0.6289863586425781,0.7506102323532104
1772883671545362000,7.04036181640625,1.132120132446289,0.5514216423034668,0.7737141847610474
1772883671561973500,7.056973388671875,1.1929512023925781,0.42852306365966797,0.7405058145523071
1772883671578575000,7.0735751953125,1.565608024597168,-0.009260416030883789,0.8849745988845825
1772883671595187000,7.09018701171875,2.1319103240966797,-0.5546610355377197,1.0077571868896484
1772883671611788500,7.10678857421875,2.4960927963256836,-1.2566866874694824,0.9912729263305664
1772883671628393700,7.123393798828125,2.4403982162475586,-1.8442997932434082,0.6363170742988586
1772883671644998400,7.139998291015625,2.1098756790161133,-2.225456476211548,0.10524135828018188
1772883671661621200,7.156621337890625,1.283665657043457,-2.4212472438812256,-0.20963454246520996
1772883671678218200,7.17321826171875,0.27944469451904297,-2.330983877182007,-0.33859729766845703
1772883671694832000,7.18983203125,-0.36652660369873047,-1.9608244895935059,-0.3316304683685303
1772883671794458000,7.2894580078125,-0.9981346130371094,-1.0925202369689941,0.7259764671325684
1772883671811063300,7.306063232421875,-0.7870540618896484,-1.2091758251190186,0.6050087213516235
1772883671827668200,7.322668212890625,-0.5323190689086914,-1.4013171195983887,0.4845934212207794
1772883671844266000,7.339265869140625,-0.4425239562988281,-1.5817391872406006,0.35207676887512207
1772883671860878300,7.35587841796875,-0.48517704010009766,-1.6777033805847168,0.19611549377441406
1772883671877479400,7.3724794921875,-0.5169496536254883,-1.7411742210388184,0.09652474522590637
1772883671894092800,7.3890927734375,-0.4659852981567383,-1.7777650356292725,0.12061509490013123
1772883671910693600,7.405693603515625,-0.4382743835449219,-1.7123875617980957,0.2175087183713913
1772883671927309600,7.4223095703125,-0.1676158905029297,-1.5941202640533447,0.462224543094635
1772883671943911200,7.4389111328125,0.027571678161621094,-1.464794397354126,0.7796933054924011
1772883671960509200,7.45550927734375,0.05775737762451172,-1.3139290809631348,0.922626256942749
1772883671977109500,7.472109619140625,-0.11081886291503906,-1.1481552124023438,0.9380977153778076
1772883671993723100,7.48872314453125,-0.4387788772583008,-0.9536721706390381,0.9934865832328796
1772883672010324000,7.505323974609375,-0.712519645690918,-0.6412816047668457,1.02817964553833
1772883672026911700,7.521911865234375,-0.7796411514282227,-0.36386537551879883,1.1000027656555176
1772883672043511800,7.53851171875,-0.7070188522338867,-0.15689325332641602,1.1475074291229248
1772883672060125400,7.55512548828125,-0.5504531860351562,-0.007059574127197266,1.2062511444091797
1772883672076727300,7.571727294921875,-0.2672262191772461,0.15429902076721191,1.2295900583267212
1772883672093339000,7.5883388671875,0.05663871765136719,0.227433443069458,1.2991371154785156
1772883672109940500,7.6049404296875,0.5780420303344727,0.31062912940979004,1.3730107545852661
1772883672126545400,7.62154541015625,0.8871040344238281,0.25391077995300293,1.5181299448013306
1772883672143152400,7.63815234375,1.0756416320800781,0.23397374153137207,1.6134127378463745
1772883672159769600,7.65476953125,1.2913379669189453,0.23818278312683105,1.6640963554382324
1772883672176374800,7.671374755859375,1.5452232360839844,0.15070104598999023,1.6803581714630127
1772883672192974300,7.687974365234375,1.5741472244262695,0.0710594654083252,1.6004666090011597
1772883672209590000,7.704590087890625,1.2335615158081055,0.07418704032897949,1.3957428932189941
1772883672226176800,7.7211767578125,1.1105937957763672,0.21227049827575684,1.240683674812317
1772883672242777600,7.737777587890625,1.392547607421875,0.2759087085723877,1.328303575515747
1772883672259399700,7.754399658203125,1.4107589721679688,0.03761696815490723,1.5651460886001587
1772883672276001000,7.7710009765625,1.1284475326538086,-0.17795801162719727,1.4960711002349854
1772883672292614700,7.78761474609375,0.7802925109863281,-0.3113391399383545,1.3201172351837158
1772883672309214700,7.804214599609375,0.5044488906860352,-0.6617612838745117,1.3717103004455566
1772883672325803000,7.820802978515625,0.6789493560791016,-1.177274227142334,1.444694995880127
1772883672342423000,7.837423095703125,1.2859821319580078,-1.7465403079986572,1.3704701662063599
1772883672359030300,7.8540302734375,1.7456846237182617,-2.2198233604431152,1.0730843544006348
1772883672375631400,7.87063134765625,1.507563591003418,-2.4586777687072754,0.978211522102356
1772883672392244700,7.88724462890625,0.7000722885131836,-2.3319339752197266,1.0999383926391602
1772883672408845300,7.90384521484375,-0.27721405029296875,-1.944145917892456,1.3407127857208252
1772883672425434000,7.92043408203125,-0.8924808502197266,-1.5394612550735474,1.4323358535766602
1772883672442038500,7.93703857421875,-0.9156064987182617,-1.3705883026123047,1.494598388671875
1772883672458660400,7.953660400390625,-0.8233957290649414,-1.3625961542129517,1.6189777851104736
1772883672475258000,7.970258056640625,-0.8423938751220703,-1.23321533203125,1.7514753341674805
1772883672491879200,7.986879150390625,-0.9102249145507812,-1.014129400253296,1.9066903591156006
1772883672508458200,8.003458251953125,-0.8119564056396484,-0.9371800422668457,1.987215518951416
1772883672525057800,8.020057861328125,-0.5851821899414062,-1.0157291889190674,1.9103996753692627
1772883672541650400,8.036650390625,-0.1988983154296875,-1.1058692932128906,1.654460072517395
1772883672558277600,8.053277587890625,0.2106485366821289,-1.190403699874878,1.3979666233062744
1772883672574881500,8.069881591796875,0.4097118377685547,-1.2209124565124512,1.1244046688079834
1772883672591488300,8.08648828125,0.3279428482055664,-1.2041337490081787,0.8641527891159058
1772883672608092400,8.103092529296875,0.04628276824951172,-1.1375086307525635,0.6499153971672058
1772883672624697900,8.11969775390625,-0.25697803497314453,-0.9830527305603027,0.5534040927886963
1772883672641302800,8.136302734375,-0.3868074417114258,-0.7693016529083252,0.6320611834526062
1772883672657921500,8.152921630859375,-0.2724952697753906,-0.562976598739624,0.7158455848693848
1772883672674523600,8.169523681640625,-0.1679096221923828,-0.5133674144744873,0.7310550808906555
1772883672691134700,8.186134765625,-0.2561206817626953,-0.444061279296875,0.7082753777503967
1772883672707736300,8.202736328125,-0.39716148376464844,-0.28953099250793457,0.6575126647949219
1772883672724327400,8.219327392578125,-0.5116920471191406,-0.13155531883239746,0.6462783813476562
1772883672740946400,8.235946533203125,-0.6671571731567383,0.008141279220581055,0.6451275944709778
1772883672757552000,8.25255224609375,-0.7145156860351562,0.14691591262817383,0.6189429759979248
1772883672774155800,8.26915576171875,-0.6207122802734375,0.23479008674621582,0.6202573180198669
1772883672790763000,8.285762939453125,-0.5598297119140625,0.28006935119628906,0.587791919708252
1772883672807367200,8.3023671875,-0.6344785690307617,0.4217081069946289,0.5273251533508301
1772883672823972000,8.31897216796875,-0.6981220245361328,0.6145930290222168,0.5919901132583618
1772883672840576500,8.335576416015625,-0.5395908355712891,0.6726474761962891,0.572376549243927
1772883672857182200,8.35218212890625,-0.12334346771240234,0.6245856285095215,0.5606567859649658
1772883672873785000,8.36878515625,0.20644187927246094,0.5539250373840332,0.6599684953689575
1772883672890394600,8.38539453125,0.2941436767578125,0.5028862953186035,0.839832067489624
1772883672906997200,8.401997314453125,0.5172090530395508,0.5715227127075195,0.9118523001670837
1772883672923602200,8.418602294921875,1.2031173706054688,0.7196276187896729,0.6599880456924438
1772883672940207400,8.435207275390624,1.9843664169311523,0.604156494140625,0.4489346742630005
1772883672956813000,8.45181298828125,2.3107004165649414,0.4950845241546631,0.3433445692062378
1772883672973424600,8.468424560546875,2.037051200866699,0.6447815895080566,0.3540705442428589
1772883672990015500,8.485015380859375,1.7866077423095703,0.6357362270355225,0.45216476917266846
1772883673006610700,8.501610595703125,1.905592918395996,0.3725254535675049,0.7505477666854858
1772883673023219200,8.51821923828125,2.613734245300293,0.0229947566986084,0.9280678033828735
1772883673039824000,8.534823974609376,3.2360429763793945,-0.5657806396484375,0.8843493461608887
1772883673056429300,8.55142919921875,3.2453832626342773,-1.173567533493042,0.8023125529289246
1772883673073032200,8.5680322265625,2.8945579528808594,-1.6949803829193115,0.5707837343215942
1772883673089642000,8.58464208984375,2.2622079849243164,-2.075228214263916,0.22970175743103027
1772883673106244000,8.601244140625,1.2153806686401367,-2.2462170124053955,0.10149556398391724
1772883673122849500,8.617849609375,0.35566234588623047,-2.118269920349121,0.05240875482559204
1772883673139472100,8.63447216796875,-0.4326009750366211,-1.9138063192367554,0.06925070285797119
1772883673156073000,8.651072998046875,-1.0722694396972656,-1.7295446395874023,0.09976339340209961
1772883673172657000,8.667656982421875,-1.4042444229125977,-1.5984817743301392,0.04262495040893555
1772883673189288200,8.6842880859375,-1.5358552932739258,-1.5462713241577148,-0.0026317834854125977
1772883673205889000,8.700888916015625,-1.4769115447998047,-1.472377061843872,-0.08170968294143677
1772883673222493400,8.717493408203126,-1.2593202590942383,-1.4885904788970947,0.016351401805877686
1772883673239094500,8.734094482421876,-1.0588350296020508,-1.5203359127044678,0.21942973136901855
1772883673255707600,8.750707763671874,-0.9280872344970703,-1.5232748985290527,0.29404574632644653
1772883673272289800,8.767289794921876,-0.8697910308837891,-1.465406894683838,0.15318799018859863
1772883673288916500,8.78391650390625,-0.8206558227539062,-1.4825780391693115,0.08646345138549805
1772883673305519000,8.80051904296875,-0.658442497253418,-1.4674136638641357,0.030898690223693848
1772883673322123800,8.817123779296875,-0.3983745574951172,-1.4077436923980713,0.001106560230255127
1772883673338725000,8.83372509765625,-0.1532115936279297,-1.3718979358673096,0.02498072385787964
1772883673355338200,8.850338134765625,-0.0831155776977539,-1.3176357746124268,0.0801427960395813
1772883673371942100,8.866942138671876,-0.3352680206298828,-1.220865249633789,-0.0017879009246826172
1772883673388541700,8.883541748046875,-0.7369289398193359,-1.1479761600494385,-0.0940253734588623
1772883673405149700,8.900149658203125,-0.8382129669189453,-0.9883637428283691,0.09966295957565308
1772883673421756200,8.916756103515626,-0.5615558624267578,-0.8538498878479004,0.4163700342178345
1772883673438359000,8.933359130859374,-0.1898040771484375,-0.8367104530334473,0.7857975363731384
1772883673454959900,8.9499599609375,-0.2744741439819336,-0.7984151840209961,1.0645968914031982
1772883673471574000,8.966573974609375,-0.6895818710327148,-0.640763521194458,1.040273666381836
1772883673488157000,8.983156982421875,-1.0809097290039062,-0.45955562591552734,0.9721193909645081
1772883673504765700,8.999765625,-0.9674453735351562,-0.3674616813659668,0.8705939650535583
