time,seconds_elapsed,z,y,x
1772883664679166000,0.174166015625,9.422337532043457,2.9976086616516113,-1.7222341299057007
1772883664695775500,0.190775390625,9.399007797241211,3.014956474304199,-1.5738791227340698
1772883664712380200,0.207380126953125,9.728618621826172,3.0897321701049805,-1.4602199792861938
1772883664728984000,0.223984130859375,10.589436531066895,3.1651060581207275,-1.3549357652664185
1772883664745604000,0.24060400390625,10.76530933380127,3.303889751434326,-1.1156535148620605
1772883664762212000,0.257212158203125,10.411170959472656,3.538984775543213,-1.1168500185012817
1772883664778815200,0.273815185546875,10.837692260742188,3.477369546890259,-1.2299108505249023
1772883664795414000,0.2904140625,12.001800537109375,3.1034910678863525,-1.358525037765503
1772883664812023000,0.30702294921875,13.004392623901367,2.9904301166534424,-1.389033555984497
1772883664828627200,0.323627197265625,13.376477241516113,3.1214370727539062,-1.1509476900100708
1772883664845230600,0.340230712890625,13.277174949645996,3.4235310554504395,-0.7800601720809937
1772883664861820400,0.3568203125,12.540783882141113,3.8608193397521973,-0.19381862878799438
1772883664878434800,0.373434814453125,12.099905967712402,4.170690059661865,0.5760720372200012
1772883664895054800,0.390054931640625,11.782258987426758,3.961317777633667,1.155135154724121
1772883664911659800,0.40665966796875,11.499307632446289,3.5778679847717285,1.4362918138504028
1772883664928256800,0.4232568359375,11.270792961120605,3.029313564300537,1.4811571836471558
1772883664944846600,0.4398466796875,10.716256141662598,2.4269204139709473,1.293320655822754
1772883664961499600,0.456499755859375,9.93679428100586,2.0243279933929443,0.9314061999320984
1772883664978074000,0.47307421875,9.250652313232422,1.770688772201538,0.6323033571243286
1772883664994668800,0.489668701171875,9.056235313415527,1.6582261323928833,0.646660327911377
1772883665011283200,0.506283203125,9.05862808227539,1.5804593563079834,0.794417142868042
1772883665027886000,0.522885986328125,8.915657043457031,1.5595221519470215,0.8141579031944275
1772883665044494800,0.539494873046875,8.633902549743652,1.551147222518921,0.8871390223503113
1772883665061096200,0.55609619140625,8.443673133850098,1.547558069229126,1.0462616682052612
1772883665077720000,0.572719970703125,8.293522834777832,1.6839489936828613,1.1772687435150146
1772883665094311700,0.589311767578125,8.280961036682129,1.911865234375,1.3369896411895752
1772883665110913000,0.6059130859375,8.127222061157227,2.2301106452941895,1.4739787578582764
1772883665127513600,0.622513671875,7.771289825439453,2.6368906497955322,1.5792629718780518
1772883665144111400,0.639111328125,7.392625331878662,2.929413080215454,1.602592945098877
1772883665160716000,0.655716064453125,7.23589563369751,3.090928554534912,1.5284154415130615
1772883665177308700,0.67230859375,7.6049885749816895,3.291327476501465,1.4895321130752563
1772883665193925600,0.688925537109375,8.171489715576172,3.403790235519409,1.357926845550537
1772883665210533000,0.705533203125,8.59920597076416,3.4821550846099854,1.1072787046432495
1772883665227133400,0.722133544921875,8.667402267456055,3.5437703132629395,0.7250252366065979
1772883665243741400,0.738741455078125,8.580063819885254,3.7082769870758057,0.3439682424068451
1772883665260368000,0.755367919921875,8.470592498779297,3.862015724182129,0.1495514214038849
1772883665276955000,0.771954833984375,8.300103187561035,4.023531436920166,0.07537391036748886
1772883665293574400,0.788574462890625,8.332406997680664,4.099503517150879,0.17168502509593964
1772883665310173700,0.805173583984375,8.273183822631836,4.204189300537109,0.19142581522464752
1772883665326780200,0.8217802734375,8.248059272766113,4.238286972045898,0.08673982322216034
1772883665343383800,0.8383837890625,8.089534759521484,4.208974838256836,-0.061016976833343506
1772883665359990300,0.854990234375,7.964509963989258,4.226921081542969,-0.11724831163883209
1772883665376591000,0.871591064453125,7.686344623565674,4.253242015838623,-0.1824527233839035
1772883665393204700,0.888204833984375,7.350152969360352,4.292723655700684,-0.18963119387626648
1772883665409804000,0.904803955078125,7.118049144744873,4.475774765014648,-0.048454657196998596
1772883665426408700,0.92140869140625,6.867401123046875,4.601995944976807,0.025722842663526535
1772883665443005700,0.938005615234375,6.692724704742432,4.672584533691406,-0.11665010452270508
1772883665459585500,0.95458544921875,6.668796539306641,4.612165451049805,-0.3320041298866272
1772883665476231400,0.9712314453125,6.908079147338867,4.53499698638916,-0.5635097622871399
1772883665492824300,0.98782421875,7.232904434204102,4.553541660308838,-0.5988038778305054
1772883665509436200,1.004436279296875,7.637889862060547,4.5924248695373535,-0.7250252366065979
1772883665526025000,1.02102490234375,7.803592681884766,4.661218643188477,-0.7591229677200317
1772883665542647800,1.037647705078125,7.880163192749023,4.948357105255127,-0.6855437159538269
1772883665559253800,1.054253662109375,8.028517723083496,5.039284706115723,-0.45583271980285645
1772883665575849200,1.07084912109375,8.240880966186523,4.997410297393799,-0.30927231907844543
1772883665592467200,1.08746728515625,8.692526817321777,4.9292144775390625,-0.17347964644432068
1772883665609066000,1.10406591796875,9.306883811950684,5.0327043533325195,-0.3200400173664093
1772883665625651200,1.120651123046875,9.394221305847168,5.004588603973389,-0.2727817893028259
1772883665642248200,1.137248291015625,9.55633544921875,5.048855781555176,-0.18723836541175842
1772883665658863600,1.153863525390625,9.792028427124023,5.106283664703369,0.16091732680797577
1772883665675476200,1.170476318359375,10.371091842651367,5.01296329498291,0.6305087804794312
1772883665692079600,1.18707958984375,11.394022941589355,4.657629489898682,0.9379864931106567
1772883665708693800,1.20369384765625,12.120842933654785,3.970889091491699,1.0432707071304321
1772883665725285400,1.220285400390625,12.099905967712402,3.2955150604248047,1.0528420209884644
1772883665741897200,1.236897216796875,11.568100929260254,2.737389087677002,0.7507480978965759
1772883665758511600,1.25351171875,10.922039031982422,2.5387847423553467,0.1740778535604477
1772883665775119400,1.270119384765625,10.313663482666016,2.4161527156829834,-0.27337998151779175
1772883665791722200,1.28672216796875,9.751948356628418,2.3988046646118164,-0.6478567123413086
1772883665808327700,1.30332763671875,9.261420249938965,2.475973129272461,-0.768694281578064
1772883665824932400,1.319932373046875,8.812766075134277,2.6536402702331543,-0.8703892230987549
1772883665841536300,1.336536376953125,8.545966148376465,2.799602508544922,-0.9343972206115723
1772883665858140000,1.353139892578125,8.516654014587402,2.8564319610595703,-0.8626125454902649
1772883665874749400,1.36974951171875,8.479565620422363,2.882154941558838,-0.584446907043457
1772883665891365400,1.386365478515625,8.609973907470703,2.9479575157165527,-0.259621262550354
1772883665907955700,1.402955810546875,8.989834785461426,2.963510751724243,0.0729810893535614
1772883665924569900,1.41956982421875,9.235098838806152,2.9461629390716553,0.20099709928035736
1772883665941156900,1.436156982421875,9.45045280456543,2.9485557079315186,0.19980068504810333
1772883665957778200,1.452778076171875,9.634101867675781,2.788834810256958,0.05383851006627083
1772883665974371000,1.46937109375,9.90987491607666,2.5782663822174072,-0.10707881301641464
1772883665990985500,1.4859853515625,10.074979782104492,2.3988046646118164,-0.23389841616153717
1772883666007582500,1.50258251953125,9.875179290771484,2.325225353240967,-0.25722843408584595
1772883666024195600,1.519195556640625,9.525228500366211,2.406581401824951,-0.14416755735874176
1772883666040795400,1.53579541015625,9.154939651489258,2.572882652282715,0.09810572862625122
1772883666057408300,1.552408203125,8.85344409942627,2.659024238586426,0.31106695532798767
1772883666074022100,1.569022216796875,8.575876235961914,2.730808734893799,0.4899304509162903
1772883666090612700,1.58561279296875,8.3359956741333,2.799004316329956,0.6209374666213989
1772883666107218200,1.60221826171875,8.178069114685059,2.8582265377044678,0.7657032608985901
1772883666123806500,1.618806396484375,8.009973526000977,2.9138598442077637,0.8099704384803772
1772883666140416800,1.635416748046875,7.811967849731445,2.960519790649414,0.7112665176391602
1772883666157019400,1.652019287109375,7.551149845123291,3.119642496109009,0.7615157961845398
1772883666173626600,1.668626708984375,7.5188469886779785,3.3056845664978027,0.8111668825149536
1772883666190231800,1.685231689453125,7.713263988494873,3.417548894882202,0.8105686902999878
1772883666206835000,1.7018349609375,7.835297584533691,3.538984775543213,0.7776673436164856
1772883666223440600,1.718440673828125,8.079365730285645,3.7148571014404297,0.638883650302887
1772883666240056300,1.735056396484375,8.4502534866333,3.8668015003204346,0.6951149702072144
1772883666256672500,1.751672607421875,8.634500503540039,4.007379531860352,0.747757077217102
1772883666273271000,1.76827099609375,8.74337387084961,4.061816215515137,0.6664010882377625
1772883666289873400,1.784873291015625,8.910273551940918,4.040280818939209,0.5647061467170715
1772883666306479900,1.80147998046875,9.240483283996582,4.058227062225342,0.6011967062950134
1772883666323083500,1.81808349609375,9.786046028137207,4.063611030578613,0.6460621356964111
1772883666339674600,1.834674560546875,10.323833465576172,3.992424488067627,0.6903293132781982
1772883666356297000,1.851296875,10.803594589233398,3.87876558303833,0.576670229434967
1772883666372901000,1.867901123046875,11.182258605957031,3.765106439590454,0.32961133122444153
1772883666389505500,1.884505615234375,11.173285484313965,3.7363924980163574,0.3774677813053131
1772883666406107000,1.90110693359375,10.898110389709473,3.6885361671447754,0.5796613097190857
1772883666422700300,1.9177001953125,10.805388450622559,3.641875982284546,0.8955138921737671
1772883666439315500,1.9343154296875,10.757532119750977,3.570091485977173,1.4261223077774048
1772883666455928600,1.950928466796875,10.768898010253906,3.3894333839416504,1.9028922319412231
1772883666472528100,1.967528076171875,10.580463409423828,3.0035905838012695,2.025524377822876
1772883666489138200,1.98413818359375,10.141380310058594,2.424527645111084,1.9806588888168335
1772883666505746000,2.000745849609375,9.814760208129883,1.9106688499450684,1.7635103464126587
1772883666522351400,2.017351318359375,9.645467758178711,1.6528422832489014,1.4847464561462402
1772883666538946000,2.033946044921875,9.754940032958984,1.4249259233474731,1.4398809671401978
1772883666555564000,2.05056396484375,10.047462463378906,1.3244273662567139,1.1934202909469604
1772883666572158500,2.067158447265625,9.838688850402832,1.1048858165740967,0.8919246196746826
1772883666588764400,2.083764404296875,9.426525115966797,1.0546365976333618,0.6496513485908508
1772883666605371400,2.100371337890625,9.090332984924316,1.1228320598602295,0.6041877269744873
1772883666621959700,2.116959716796875,9.192028045654297,1.342971682548523,0.7537391185760498
1772883666638565600,2.133565673828125,9.159725189208984,1.622931957244873,1.0187442302703857
1772883666655176700,2.1501767578125,8.83370304107666,2.028515338897705,1.277169108390808
1772883666671778000,2.166778076171875,8.687142372131348,2.297109842300415,1.6055840253829956
1772883666688387800,2.183387939453125,8.776275634765625,2.4634108543395996,1.8735800981521606
1772883666704988700,2.19998876953125,9.120243072509766,2.5423741340637207,2.0303099155426025
1772883666721597200,2.21659716796875,9.421140670776367,2.5603201389312744,1.9710876941680908
1772883666738213400,2.23321337890625,9.568299293518066,2.5022943019866943,1.6498512029647827
1772883666754820600,2.249820556640625,9.429515838623047,2.3844478130340576,1.2765709161758423
1772883666771428000,2.266427978515625,9.159127235412598,2.3700907230377197,0.8955138921737671
1772883666788025900,2.28302587890625,8.96949577331543,2.423929452896118,0.5521438121795654
1772883666804637000,2.299636962890625,8.82652473449707,2.5118656158447266,0.10408778488636017
1772883666821235700,2.316235595703125,8.648259162902832,2.6572296619415283,-0.36251261830329895
1772883666837841700,2.332841552734375,8.3359956741333,2.6835505962371826,-0.4366901218891144
1772883666854446800,2.34944677734375,8.204390525817871,2.830709218978882,-0.4588237404823303
1772883666871051800,2.3660517578125,8.291728973388672,3.0077781677246094,-0.4055834412574768
1772883666887663600,2.38266357421875,8.654241561889648,3.1351959705352783,-0.27756741642951965
1772883666904263200,2.39926318359375,8.709874153137207,3.2033913135528564,-0.3445664644241333
1772883666920866000,2.415865966796875,8.343772888183594,3.291327476501465,-0.48514479398727417
1772883666937468000,2.432468017578125,7.9316086769104,3.494119167327881,-0.6580262184143066
1772883666954082000,2.44908203125,7.532007694244385,3.614956855773926,-0.7459624409675598
1772883666970667300,2.465667236328125,7.083353042602539,3.8015968799591064,-0.7657032608985901
1772883666987305700,2.4823056640625,7.122236728668213,3.9798622131347656,-0.8129615187644958
1772883667003889700,2.4988896484375,7.466803073883057,3.9601213932037354,-0.8769695162773132
1772883667020498400,2.51549853515625,7.7940216064453125,3.835096597671509,-1.0043872594833374
1772883667037097000,2.532096923828125,8.053643226623535,3.738187074661255,-1.0971091985702515
1772883667053725000,2.548724853515625,8.462815284729004,3.5850465297698975,-1.1389836072921753
1772883667070313000,2.56531298828125,9.104690551757812,3.305086374282837,-1.134796142578125
1772883667086916400,2.581916259765625,9.983454704284668,3.090928554534912,-1.2801600694656372
1772883667103519700,2.598519775390625,10.823334693908691,3.163909673690796,-1.4709876775741577
1772883667120117500,2.615117431640625,11.141580581665039,3.3003005981445312,-1.3854442834854126
1772883667136718600,2.631718505859375,11.259427070617676,3.4672000408172607,-1.1413763761520386
1772883667153327900,2.648327880859375,11.310873031616211,3.486940860748291,-0.5288137793540955
1772883667169931800,2.664931884765625,11.800803184509277,3.6257245540618896,0.11006984114646912
1772883667186532600,2.68153271484375,12.928421020507812,3.3607194423675537,0.5946164131164551
1772883667203143000,2.698142822265625,13.973485946655273,2.4113669395446777,1.0785647630691528
1772883667219763000,2.714762939453125,14.3060884475708,1.5248262882232666,1.0414760112762451
1772883667236359700,2.731359619140625,13.712668418884277,0.8620143532752991,0.5473581552505493
1772883667252973600,2.7479736328125,12.364313125610352,0.5892325639724731,-0.049651071429252625
1772883667269574400,2.764574462890625,10.792826652526855,0.768694281578064,-0.6131607890129089
1772883667286177300,2.78117724609375,9.463613510131836,1.0869396924972534,-0.9188438653945923
1772883667302785800,2.797785888671875,8.357531547546387,1.4051851034164429,-0.9200403094291687
1772883667319389700,2.8143896484375,7.929215908050537,1.797009825706482,-0.890728235244751
1772883667335990800,2.83099072265625,8.10987377166748,1.8705891370773315,-0.8003991842269897
1772883667352602600,2.8476025390625,8.611170768737793,1.9710876941680908,-0.7357929348945618
1772883667369206800,2.864206787109375,8.98086166381836,1.9872392416000366,-0.48394837975502014
1772883667385808000,2.880807861328125,9.360722541809082,1.9980069398880005,-0.15613168478012085
1772883667402416400,2.89741650390625,9.739984512329102,1.9908283948898315,0.06161518394947052
1772883667419019300,2.914019287109375,9.906285285949707,1.7964116334915161,0.06400800496339798
1772883667435609300,2.930609375,9.822537422180176,1.5589239597320557,-0.2721835672855377
1772883667452234500,2.947234375,9.571290969848633,1.3106685876846313,-0.6598208546638489
1772883667468834800,2.963834716796875,9.17467975616455,1.184447169303894,-0.9355936646461487
1772883667485441800,2.98044189453125,8.759525299072266,1.3244273662567139,-1.0713863372802734
1772883667502046500,2.99704638671875,8.521439552307129,1.555932879447937,-1.0199406147003174
1772883667518654200,3.013654296875,8.319246292114258,1.6761722564697266,-0.7980063557624817
1772883667535254800,3.0302548828125,8.030312538146973,1.8628123998641968,-0.5467599630355835
1772883667551862500,3.046862548828125,7.976474285125732,2.021935224533081,-0.2386840581893921
1772883667568465400,3.06346533203125,8.201997756958008,2.11824631690979,0.052043892443180084
1772883667585070300,3.0800703125,8.327022552490234,2.0991036891937256,0.17587246000766754
1772883667601654300,3.096654296875,8.278568267822266,2.132603168487549,0.11904292553663254
1772883667618261500,3.113261474609375,8.382058143615723,2.1876380443573,-0.024526432156562805
1772883667634880800,3.129880859375,8.49452018737793,2.2612173557281494,-0.129810631275177
1772883667651475500,3.146475341796875,8.520243644714355,2.4059832096099854,-0.2105683982372284
1772883667668082700,3.163082763671875,8.602795600891113,2.5884358882904053,-0.1663011759519577
1772883667684693000,3.17969287109375,8.752346992492676,2.8139593601226807,-0.06041877344250679
1772883667701281500,3.196281494140625,8.970093727111816,3.0346972942352295,0.1501496136188507
1772883667717915100,3.2129150390625,9.322437286376953,3.218346357345581,0.42711883783340454
1772883667734518300,3.229518310546875,9.533005714416504,3.3134610652923584,0.7519445419311523
1772883667751123000,3.246123046875,9.835099220275879,3.334996461868286,0.8602197170257568
1772883667767727600,3.2627275390625,10.231709480285645,3.1519455909729004,0.9762716293334961
1772883667784333000,3.2793330078125,10.502696990966797,2.9306094646453857,0.844068169593811
1772883667800938500,3.2959384765625,10.63669490814209,2.80558443069458,0.5216353535652161
1772883667817542100,3.312542236328125,10.531410217285156,2.6973092555999756,0.16749759018421173
1772883667834144500,3.32914453125,10.518848419189453,2.696112871170044,-0.28175488114356995
1772883667850757400,3.34575732421875,10.551151275634766,2.679363250732422,-0.5688936114311218
1772883667867337700,3.362337646484375,10.333404541015625,2.7457640171051025,-0.7489534616470337
1772883667883946800,3.37894677734375,10.246066093444824,2.801995277404785,-0.753140926361084
1772883667900552400,3.395552490234375,10.353145599365234,2.740380048751831,-0.6729813814163208
1772883667917154600,3.412154541015625,10.393823623657227,2.644667148590088,-0.5635097622871399
1772883667933765000,3.42876513671875,10.668997764587402,2.3018953800201416,-0.44327038526535034
1772883667950368000,3.445367919921875,10.89153003692627,1.9357935190200806,-0.4378865361213684
1772883667966977300,3.461977294921875,11.074581146240234,1.6169499158859253,-0.4265206456184387
1772883667983579600,3.47857958984375,11.042278289794922,1.319043517112732,-0.31405797600746155
1772883668000182300,3.495182373046875,10.614561080932617,1.2035897970199585,-0.25004997849464417
1772883668016806700,3.511806640625,10.04566764831543,1.1216355562210083,-0.3481557071208954
1772883668033409000,3.528408935546875,9.562317848205566,1.1030912399291992,-0.45523449778556824
1772883668050018300,3.545018310546875,9.016156196594238,1.1682956218719482,-0.3852444589138031
1772883668066620000,3.561619873046875,8.559126853942871,1.357926845550537,-0.18963119387626648
1772883668083223800,3.578223876953125,8.164909362792969,1.5571293830871582,0.09152546525001526
1772883668099812600,3.5948125,7.957930088043213,1.710868239402771,0.33738797903060913
1772883668116420000,3.611420166015625,7.767102241516113,1.7407784461975098,0.5252245664596558
1772883668133026000,3.628026123046875,7.7353973388671875,1.6259230375289917,0.529412031173706
1772883668149630700,3.644630615234375,7.861020565032959,1.5182459354400635,0.3607180118560791
1772883668166236400,3.661236328125,7.913064479827881,1.4446666240692139,0.10648060590028763
1772883668182840800,3.6778408203125,7.8765740394592285,1.4991034269332886,-0.20877377688884735
1772883668199463200,3.694463134765625,7.643871784210205,1.5948163270950317,-0.46480581164360046
1772883668216060200,3.71106005859375,7.431509017944336,1.8335003852844238,-0.7441678643226624
1772883668232671000,3.7276708984375,7.417151927947998,2.050050735473633,-0.857228696346283
1772883668249278000,3.74427783203125,7.834699630737305,2.2881367206573486,-0.7238288521766663
1772883668265880800,3.760880859375,8.303094863891602,2.35872483253479,-0.5970092415809631
1772883668282484500,3.777484375,8.776275634765625,2.3880369663238525,-0.5946164131164551
1772883668299090700,3.794090576171875,9.244071960449219,2.39401912689209,-0.7501499056816101
1772883668315695900,3.81069580078125,9.584450721740723,2.2845473289489746,-0.9589236974716187
1772883668332303600,3.8273037109375,9.77109146118164,2.1744775772094727,-1.3046865463256836
1772883668348902000,3.84390185546875,9.903294563293457,2.1547367572784424,-1.578664779663086
1772883668365510700,3.8605107421875,9.979267120361328,2.2265214920043945,-1.5445669889450073
1772883668382115000,3.877114990234375,9.966704368591309,2.3886351585388184,-1.4715858697891235
1772883668398721300,3.89372119140625,10.160523414611816,2.506481647491455,-1.5487544536590576
1772883668415322400,3.910322265625,10.548758506774902,2.4580271244049072,-1.5990036725997925
1772883668431908900,3.926908935546875,10.993824005126953,2.42512583732605,-1.6444673538208008
1772883668448544500,3.94354443359375,11.425129890441895,2.3910279273986816,-1.604387640953064
1772883668465109500,3.960109619140625,11.70150089263916,2.2636101245880127,-1.4584254026412964
1772883668481746200,3.97674609375,11.976675987243652,2.2031915187835693,-1.3028919696807861
1772883668498351000,3.99335107421875,12.354741096496582,2.4233310222625732,-1.3657035827636719
1772883668514957800,4.009957763671875,12.616755485534668,2.544168710708618,-1.1509476900100708
1772883668531567400,4.0265673828125,12.690335273742676,2.641077995300293,-0.6340979933738708
1772883668548159700,4.04315966796875,12.5742826461792,2.8701908588409424,-0.15314064919948578
1772883668564771800,4.059771728515625,12.146566390991211,2.8528428077697754,0.24586252868175507
1772883668581376800,4.076376708984375,11.699108123779297,2.7565317153930664,0.36251261830329895
1772883668597965000,4.092965087890625,11.484950065612793,2.4526431560516357,0.34217363595962524
1772883668614569500,4.109569580078125,11.559725761413574,2.060220241546631,0.4301098585128784
1772883668631181800,4.126181884765625,11.832508087158203,1.607378602027893,0.5826523303985596
1772883668647783200,4.142783203125,11.44666576385498,0.9822536706924438,0.47976094484329224
1772883668664388900,4.159388916015625,10.709077835083008,0.6041877269744873,0.07956135272979736
1772883668680993000,4.175992919921875,9.809974670410156,0.4253242313861847,-0.3565305769443512
1772883668697616100,4.1926162109375,8.819944381713867,0.3397808074951172,-0.5383850932121277
1772883668714217000,4.209217041015625,7.788637638092041,0.40677985548973083,-0.7088736891746521
1772883668730823000,4.225822998046875,7.003791809082031,0.656829833984375,-0.7411768436431885
1772883668747427600,4.242427490234375,6.620342254638672,1.038485050201416,-0.534795880317688
1772883668764033000,4.259032958984375,6.5629143714904785,1.3657035827636719,-0.2548356056213379
1772883668780633600,4.275633544921875,6.776473522186279,1.557727575302124,-0.005982056725770235
1772883668797246700,4.292246826171875,7.080362319946289,1.6893328428268433,0.04127619042992592
1772883668813831700,4.308831787109375,7.2676005363464355,1.6767704486846924,0.11186445504426956
1772883668830453500,4.32545361328125,7.820342540740967,1.8023936748504639,0.06161518394947052
1772883668847058200,4.34205810546875,8.6033935546875,1.8263218402862549,-0.06699903309345245
1772883668863663600,4.35866357421875,9.144171714782715,1.7341982126235962,-0.3577269911766052
1772883668880263700,4.375263671875,9.241081237792969,1.5655041933059692,-0.6849454641342163
1772883668896877300,4.391877197265625,9.067601203918457,1.5649060010910034,-0.8321040868759155
1772883668913478000,4.408477783203125,8.729615211486816,1.8323038816452026,-0.5647061467170715
1772883668930083800,4.425083740234375,8.501100540161133,2.114656925201416,-0.2841476798057556
1772883668946688300,4.441688232421875,8.555537223815918,2.310270309448242,-0.14416755735874176
1772883668963293700,4.458293701171875,8.785248756408691,2.316850423812866,-0.10707881301641464
1772883668979898600,4.474898681640625,9.020342826843262,2.1032910346984863,0.019142581149935722
1772883668996503800,4.49150390625,9.080761909484863,1.9782661199569702,0.14656038582324982
1772883669013108200,4.508108154296875,8.998807907104492,2.02492618560791,0.20997019112110138
1772883669029714400,4.52471435546875,8.70508861541748,2.1032910346984863,0.19262222945690155
1772883669046318800,4.54131884765625,8.514261245727539,2.2893331050872803,0.004187439568340778
1772883669062929400,4.557929443359375,8.539983749389648,2.3533411026000977,-0.21595224738121033
1772883669079515600,4.574515625,8.652446746826172,2.4460630416870117,-0.2871387302875519
1772883669096120800,4.591120849609375,8.964710235595703,2.669193744659424,-0.2350948303937912
1772883669112725200,4.607725341796875,9.205188751220703,2.905484914779663,-0.11006984114646912
1772883669129330700,4.62433056640625,9.416953086853027,3.098705291748047,-0.04785645380616188
1772883669145935600,4.640935546875,9.495318412780762,3.2338998317718506,-0.09511470049619675
1772883669162540800,4.657540771484375,9.546165466308594,3.325425386428833,-0.137587308883667
1772883669179149000,4.674149169921875,9.699904441833496,3.336193084716797,-0.06161518394947052
1772883669195764500,4.690764404296875,10.267004013061523,3.236292600631714,0.029910283163189888
1772883669212369000,4.707368896484375,10.845468521118164,2.998206853866577,0.06281159073114395
1772883669228975000,4.72397509765625,11.255239486694336,2.775076150894165,-0.15613168478012085
1772883669245579800,4.740579833984375,11.289337158203125,2.633899450302124,-0.4540380835533142
1772883669262203000,4.757202880859375,10.97767162322998,2.599203586578369,-0.7250252366065979
1772883669278790100,4.7737900390625,10.619346618652344,2.7314071655273438,-0.9182456731796265
1772883669295394800,4.790394775390625,10.295119285583496,2.9240293502807617,-0.9577272534370422
1772883669311999500,4.80699951171875,10.04267692565918,2.8731818199157715,-0.9284151792526245
1772883669328606000,4.82360595703125,9.979865074157715,2.624328136444092,-0.98703932762146
1772883669345209900,4.8402099609375,10.067801475524902,2.3084757328033447,-0.8703892230987549
1772883669361815300,4.856815185546875,10.243075370788574,1.97407865524292,-0.6921239495277405
1772883669378420200,4.873420166015625,10.491331100463867,1.7473586797714233,-0.7190431952476501
1772883669395025400,4.890025390625,10.576874732971191,1.490728497505188,-0.8267202377319336
1772883669411630000,4.906630126953125,10.488938331604004,1.3130614757537842,-0.8703892230987549
1772883669428236000,4.923236083984375,10.473982810974121,1.1437692642211914,-0.6897311210632324
1772883669444840400,4.93984033203125,10.432108879089355,1.1700903177261353,-0.4504488706588745
1772883669461446000,4.95644580078125,10.089935302734375,1.3698909282684326,-0.19800607860088348
1772883669478050800,4.97305078125,9.77109146118164,1.6372889280319214,0.054436713457107544
1772883669494655700,4.98965576171875,9.550951957702637,1.76051926612854,0.4630111753940582
1772883669511260400,5.006260498046875,9.354740142822266,1.8616160154342651,0.7280163168907166
1772883669527866600,5.02286669921875,9.31166934967041,1.9130617380142212,0.8578268885612488
1772883669544471000,5.039470947265625,9.28893756866455,1.812563180923462,0.8189435601234436
1772883669561077000,5.056076904296875,9.300901412963867,1.5900306701660156,0.5108676552772522
1772883669577664000,5.0726640625,9.321240425109863,1.425524115562439,0.1986042857170105
1772883669594273000,5.08927294921875,9.122037887573242,1.3088740110397339,0.10827522724866867
1772883669610877400,5.10587744140625,8.846863746643066,1.397408366203308,0.06699903309345245
1772883669627483000,5.12248291015625,8.527421951293945,1.571486234664917,-0.010767702013254166
1772883669644087600,5.139087646484375,8.10269546508789,1.6977076530456543,-0.1657029688358307
1772883669660691200,5.155691162109375,7.573283672332764,1.82273268699646,-0.3433700501918793
1772883669677317000,5.172317138671875,7.138388156890869,2.0003998279571533,-0.46420758962631226
1772883669693916700,5.188916748046875,7.001399040222168,2.1475582122802734,-0.4905286431312561
1772883669710521300,5.205521240234375,7.172485828399658,2.258824586868286,-0.3762713670730591
1772883669727127000,5.222126953125,7.541578769683838,2.303689956665039,-0.11485548317432404
1772883669743731700,5.238731689453125,7.923832416534424,2.3641088008880615,0.0029910283628851175
1772883669760337000,5.2553369140625,8.181658744812012,2.4191436767578125,0.09272187948226929
1772883669776942300,5.2719423828125,8.314460754394531,2.5112674236297607,0.07836493849754333
1772883669793547300,5.28854736328125,8.435297966003418,2.6195425987243652,-0.10767702013254166
1772883669810151700,5.305151611328125,8.609973907470703,2.6805596351623535,-0.30927231907844543
1772883669826758000,5.3217578125,8.784649848937988,2.7553353309631348,-0.41994038224220276
1772883669843362000,5.338362060546875,8.974879264831543,2.819343328475952,-0.4301098585128784
1772883669859968300,5.35496826171875,9.302696228027344,2.9240293502807617,-0.4977070987224579
1772883669876572700,5.37157275390625,9.748359680175781,2.8863422870635986,-0.5437689423561096
1772883669893177600,5.388177490234375,10.424331665039062,2.779263496398926,-0.6251249313354492
1772883669909782000,5.404781982421875,11.154741287231445,2.5776681900024414,-0.7357929348945618
1772883669926388000,5.421387939453125,11.755937576293945,2.4023938179016113,-0.7692924737930298
1772883669942992600,5.43799267578125,12.32363510131836,2.255235433578491,-0.735194742679596
1772883669959598600,5.4545986328125,12.52164077758789,2.42512583732605,-0.7447660565376282
1772883669976202800,5.47120263671875,12.08195972442627,2.691925525665283,-0.6011967062950134
1772883669992808700,5.48780859375,11.885149955749512,2.9341988563537598,-0.6753742098808289
1772883670009412600,5.50441259765625,11.73141098022461,2.96111798286438,-0.6885347366333008
1772883670026001700,5.521001708984375,11.784052848815918,2.7738797664642334,-0.5084748268127441
1772883670042623500,5.53762353515625,12.218350410461426,2.534597396850586,0.09032905846834183
1772883670059211800,5.554211669921875,13.064811706542969,2.242672920227051,0.6089733839035034
1772883670075819500,5.570819580078125,13.520644187927246,1.724626898765564,0.8039883971214294
1772883670092425200,5.58742529296875,13.513465881347656,1.2526426315307617,0.5467599630355835
1772883670109029400,5.604029296875,13.202399253845215,0.8608179688453674,0.09152546525001526
1772883670125635600,5.620635498046875,12.461820602416992,0.4576273262500763,-0.20398813486099243
1772883670142239700,5.63723974609375,11.760723114013672,0.29790642857551575,-0.2871387302875519
1772883670158833400,5.65383349609375,10.960922241210938,0.12083754688501358,-0.19800607860088348
1772883670175467500,5.670467529296875,9.927223205566406,0.14715859293937683,-0.05802594870328903
1772883670192068900,5.68706884765625,8.960522651672363,0.42771705985069275,0.0023928226437419653
1772883670208673500,5.703673583984375,8.268997192382812,0.6065805554389954,0.07417750358581543
1772883670225279500,5.720279541015625,7.715656757354736,0.5605186820030212,0.2638086974620819
1772883670241884000,5.7368837890625,7.2095746994018555,0.5635097622871399,0.44327038526535034
1772883670258490400,5.753490478515625,6.708876609802246,0.7489534616470337,0.5000999569892883
1772883670275093800,5.77009375,6.320042610168457,1.0654042959213257,0.4618147611618042
1772883670291700200,5.7867001953125,6.154339790344238,1.3908281326293945,0.2356930375099182
1772883670308292000,5.8032919921875,6.156732559204102,1.6707884073257446,-0.05922235921025276
1772883670324909800,5.819909912109375,6.378068923950195,1.9776679277420044,-0.4408775866031647
1772883670341515300,5.836515380859375,6.774679183959961,2.142772674560547,-0.7525427341461182
1772883670358120000,5.853119873046875,7.374081134796143,2.270190477371216,-0.9607182741165161
1772883670374724400,5.869724365234375,7.805985450744629,2.466402053833008,-0.9565308690071106
1772883670391330300,5.886330322265625,8.13679313659668,2.740978240966797,-0.7411768436431885
1772883670407934500,5.9029345703125,8.49452018737793,2.947359323501587,-0.3116651475429535
1772883670424541000,5.919541015625,8.987442016601562,3.111865758895874,0.12681959569454193
1772883670441144600,5.93614453125,9.378668785095215,3.2201411724090576,0.26919254660606384
1772883670457751000,5.9527509765625,9.833304405212402,3.2201411724090576,0.2949153780937195
1772883670474354700,5.969354736328125,10.162318229675293,3.0652058124542236,0.35413774847984314
1772883670490960400,5.98596044921875,10.326824188232422,2.9665019512176514,0.3433700501918793
1772883670507564800,6.002564697265625,10.201201438903809,3.0179476737976074,0.3152543902397156
1772883670524170500,6.01917041015625,9.643074989318848,3.2069804668426514,0.43968117237091064
1772883670540775000,6.03577490234375,8.910273551940918,3.5192439556121826,0.48454657196998596
1772883670557364000,6.052364013671875,8.370692253112793,3.7190446853637695,0.527019202709198
1772883670573971700,6.0689716796875,8.2157564163208,3.827319860458374,0.5718846321105957
1772883670590577200,6.0855771484375,8.252246856689453,3.899702787399292,0.4911268353462219
1772883670607181600,6.102181640625,8.561519622802734,3.9194436073303223,0.29790642857551575
1772883670623787300,6.118787353515625,8.925827026367188,3.8662030696868896,0.25722843408584595
1772883670640392000,6.135391845703125,9.027522087097168,3.8428730964660645,0.3044866919517517
1772883670656997600,6.15199755859375,9.159127235412598,4.001397609710693,0.39062830805778503
1772883670673619000,6.168618896484375,9.253045082092285,4.0695929527282715,0.3858426511287689
1772883670690221300,6.18522119140625,9.361320495605469,4.101297855377197,0.1704886108636856
1772883670706825700,6.20182568359375,9.585049629211426,4.095315933227539,-0.0077766734175384045
1772883670723431400,6.218431396484375,9.838688850402832,4.037290096282959,-0.16271193325519562
1772883670740027400,6.23502734375,9.985248565673828,4.078566074371338,-0.34995031356811523
1772883670756642000,6.25164208984375,9.975677490234375,4.073780536651611,-0.3595215976238251
1772883670773245700,6.26824560546875,9.891928672790527,3.9906299114227295,-0.27337998151779175
1772883670789852200,6.28485205078125,9.990034103393555,3.66520619392395,-0.10408778488636017
1772883670806443500,6.301443603515625,10.467402458190918,3.050848960876465,0.137587308883667
1772883670823061800,6.318061767578125,11.139187812805176,2.4783661365509033,0.27756741642951965
1772883670839667000,6.3346669921875,11.553146362304688,1.8699909448623657,0.2991028428077698
1772883670856272600,6.351272705078125,11.559127807617188,1.4931213855743408,0.17228323221206665
1772883670872860400,6.3678603515625,11.12602710723877,1.2987045049667358,-0.061016976833343506
1772883670889483000,6.38448291015625,10.506884574890137,1.3268201351165771,-0.20578274130821228
1772883670906070000,6.401070068359375,9.952945709228516,1.5224334001541138,-0.27756741642951965
1772883670922692900,6.41769287109375,9.607182502746582,1.8532410860061646,-0.2063809484243393
1772883670939297300,6.43429736328125,9.305088996887207,2.2163519859313965,0.008374879136681557
1772883670955903000,6.450903076171875,9.079565048217773,2.599203586578369,0.3188436031341553
1772883670972507100,6.467507080078125,8.902496337890625,2.9114668369293213,0.5132604837417603
1772883670989112600,6.484112548828125,8.495118141174316,3.2267212867736816,0.5946164131164551
1772883671005700600,6.50070068359375,8.1493558883667,3.548556089401245,0.5988038778305054
1772883671022320000,6.517320068359375,8.062616348266602,3.679563045501709,0.8536394834518433
1772883671038913300,6.533913330078125,8.12961483001709,3.731606960296631,0.997208833694458
1772883671055519500,6.55051953125,8.210372924804688,3.7196428775787354,0.8482556343078613
1772883671072115500,6.567115478515625,8.479565620422363,3.524029493331909,0.5060819983482361
1772883671088730000,6.583730224609375,8.846264839172363,3.2578279972076416,0.20518454909324646
1772883671105333800,6.600333740234375,9.050851821899414,2.9144580364227295,-0.24287149310112
1772883671121939700,6.616939697265625,8.96530818939209,2.71645188331604,-0.7226324677467346
1772883671138541800,6.633541748046875,8.758329391479492,2.664407968521118,-1.0707881450653076
1772883671155155700,6.65015576171875,8.446663856506348,2.93001127243042,-1.1676974296569824
1772883671171767600,6.666767578125,8.072785377502441,3.2727832794189453,-0.9332008361816406
1772883671188373000,6.683373046875,7.83410120010376,3.6029927730560303,-0.6089733839035034
1772883671204978000,6.69997802734375,7.817351341247559,3.830310821533203,-0.349352091550827
1772883671221577700,6.71657763671875,8.13380241394043,3.91705060005188,-0.04426721855998039
1772883671238189800,6.73318994140625,8.420941352844238,4.0181474685668945,0.2949153780937195
1772883671254797800,6.7497978515625,8.289934158325195,4.191627025604248,0.550349235534668
1772883671271398100,6.766398193359375,8.263612747192383,4.348955154418945,0.6137589812278748
1772883671288003600,6.783003662109375,8.120641708374023,4.3280181884765625,0.6622136831283569
1772883671304592100,6.799592041015625,7.981259822845459,4.322634220123291,0.5431707501411438
1772883671321214000,6.8162138671875,7.922635555267334,4.380061626434326,0.47258245944976807
1772883671337818000,6.832818115234375,8.542975425720215,4.481756687164307,0.5557330846786499
1772883671354420200,6.849420166015625,9.204590797424316,4.464408874511719,0.6424728631973267
1772883671371032600,6.866032470703125,9.42353343963623,4.504488468170166,0.6418746709823608
1772883671387634200,6.88263427734375,9.177671432495117,4.579862594604492,0.519242525100708
1772883671404238300,6.89923828125,8.95394229888916,4.707878589630127,0.349352091550827
1772883671420829400,6.915829345703125,8.783453941345215,4.657031059265137,0.4743770956993103
1772883671437451800,6.93245166015625,9.008976936340332,4.71445894241333,0.755533754825592
1772883671454052400,6.94905224609375,9.321240425109863,4.942375183105469,0.8608179688453674
1772883671470642400,6.965642333984375,9.793225288391113,5.212165832519531,0.6592226624488831
1772883671487264500,6.982264404296875,9.81117057800293,5.0255255699157715,0.6675975322723389
1772883671503869000,6.998868896484375,9.822537422180176,4.869394302368164,0.4701896607875824
1772883671520458200,7.015458251953125,10.085148811340332,4.83051061630249,0.2721835672855377
1772883671537062400,7.0320625,10.055837631225586,4.643272399902344,0.3332005441188812
1772883671553671200,7.048671142578125,10.051051139831543,4.5822553634643555,0.1986042857170105
1772883671570275600,7.065275634765625,10.386046409606934,4.101896286010742,0.3080759048461914
1772883671586881500,7.081881591796875,11.026126861572266,3.4755749702453613,0.44805604219436646
1772883671603485700,7.098485595703125,11.56271743774414,2.700300455093384,0.5688936114311218
1772883671620091400,7.11509130859375,11.535798072814941,1.9992033243179321,0.2763710021972656
1772883671636696000,7.131696044921875,11.310274124145508,1.5804593563079834,-0.3086741268634796
1772883671653319000,7.14831884765625,10.540982246398926,1.3938192129135132,-0.7507480978965759
1772883671669919200,7.164919189453125,9.422337532043457,1.5128620862960815,-0.9439685344696045
1772883671686525200,7.181525146484375,8.528019905090332,1.9627127647399902,-0.9930213689804077
1772883671786155800,7.28115576171875,7.684549808502197,3.521636724472046,0.39062830805778503
1772883671802760200,7.29776025390625,7.820940971374512,3.370290756225586,0.32662028074264526
1772883671819363600,7.314363525390625,8.163712501525879,3.1692936420440674,0.19920247793197632
1772883671835954700,7.33095458984375,8.316255569458008,2.8941190242767334,0.08614161610603333
1772883671852576300,7.347576171875,8.318648338317871,2.7188446521759033,-0.10648060590028763
1772883671869180400,7.364180419921875,8.26241683959961,2.575873613357544,-0.28893333673477173
1772883671885785900,7.380785888671875,8.417949676513672,2.4538395404815674,-0.3194418251514435
1772883671902390300,7.397390380859375,8.400602340698242,2.3712873458862305,-0.24825534224510193
1772883671918980600,7.413980712890625,8.721240043640137,2.4358935356140137,-0.09631111472845078
1772883671935601400,7.430601318359375,9.010173797607422,2.469393014907837,0.28953152894973755
1772883671952207000,7.44720703125,9.076574325561523,2.5597219467163086,0.4713860750198364
1772883671968810800,7.463810791015625,8.983254432678223,2.6973092555999756,0.4875376224517822
1772883671985416200,7.480416259765625,8.636295318603516,2.851048231124878,0.5288137793540955
1772883672002020900,7.497020751953125,8.315058708190918,3.139383316040039,0.5808576941490173
1772883672018590200,7.513590087890625,8.213961601257324,3.4342987537384033,0.6454638838768005
1772883672035217400,7.530217529296875,8.301300048828125,3.6496527194976807,0.7088736891746521
1772883672051819300,7.5468193359375,8.443673133850098,3.7609190940856934,0.7854440212249756
1772883672068417300,7.563417236328125,8.732605934143066,3.9355950355529785,0.851844847202301
1772883672085033200,7.580033203125,9.014361381530762,3.985844373703003,0.9415757060050964
1772883672101637600,7.5966376953125,9.544371604919434,4.091128349304199,1.058824062347412
1772883672118243300,7.613243408203125,9.948758125305176,4.036093711853027,1.2951152324676514
1772883672134848000,7.629847900390625,10.132407188415527,3.9984066486358643,1.4901303052902222
1772883672151471000,7.64647119140625,10.295717239379883,4.008575916290283,1.5798611640930176
1772883672168071400,7.663071533203125,10.59960651397705,3.9158542156219482,1.6588243246078491
1772883672184676900,7.6796767578125,10.740184783935547,3.806980848312378,1.662413477897644
1772883672201281800,7.69628173828125,10.414162635803223,3.776472330093384,1.4775680303573608
1772883672217870600,7.71287060546875,10.076175689697266,3.8841493129730225,1.293320655822754
1772883672234492700,7.72949267578125,10.442277908325195,4.0217366218566895,1.3645070791244507
1772883672251097300,7.746097412109375,10.606185913085938,3.8153557777404785,1.6821542978286743
1772883672267702800,7.762702880859375,10.302297592163086,3.462414264678955,1.705484390258789
1772883672284307500,7.779307373046875,9.986445426940918,3.3469607830047607,1.3860424757003784
1772883672300912000,7.795912109375,9.66819953918457,2.96111798286438,1.3369896411895752
1772883672317517600,7.812517578125,9.747162818908691,2.334796667098999,1.3698909282684326
1772883672334126000,7.8291259765625,10.363314628601074,1.6145570278167725,1.2993026971817017
1772883672350724900,7.845724853515625,11.061420440673828,0.97926265001297,0.9080761671066284
1772883672367332600,7.86233251953125,11.00877857208252,0.6269195079803467,0.6137589812278748
1772883672383937800,7.878937744140625,10.218548774719238,0.6705885529518127,0.623330295085907
1772883672400542700,7.895542724609375,9.138788223266602,1.1413763761520386,0.7812566161155701
1772883672417138000,7.912137939453125,8.344968795776367,1.648654818534851,0.8422735929489136
1772883672433746700,7.92874658203125,8.233104705810547,1.9878374338150024,0.8261220455169678
1772883672450358000,7.94535791015625,8.34855842590332,2.0213370323181152,0.9834501147270203
1772883672466963200,7.961963134765625,8.374878883361816,2.1780667304992676,1.1186445951461792
1772883672483568400,7.978568359375,8.207980155944824,2.490330219268799,1.3513466119766235
1772883672500173000,7.995173095703125,8.27258586883545,2.6626133918762207,1.4763715267181396
1772883672516761300,8.01176123046875,8.479565620422363,2.583052158355713,1.4745769500732422
1772883672533369600,8.02836962890625,8.84925651550293,2.4502503871917725,1.2275179624557495
1772883672549975300,8.044975341796874,9.309276580810547,2.2953150272369385,0.9463613629341125
1772883672566579500,8.061579345703125,9.625128746032715,2.215155601501465,0.6287141442298889
1772883672583184600,8.0781845703125,9.56650447845459,2.159522533416748,0.3128615617752075
1772883672599789600,8.09478955078125,9.339186668395996,2.1882362365722656,0.008374879136681557
1772883672616395300,8.111395263671875,8.9910306930542,2.3054845333099365,-0.15134602785110474
1772883672633000200,8.128000244140624,8.782855987548828,2.4562325477600098,-0.13519448041915894
1772883672649622300,8.144622314453125,8.894122123718262,2.685943365097046,-0.02392822690308094
1772883672666223900,8.161223876953125,9.10409164428711,2.702693223953247,-0.0011964113218709826
1772883672682829600,8.17782958984375,9.050851821899414,2.717050075531006,-0.06281159073114395
1772883672699433200,8.19443310546875,8.86660385131836,2.815753936767578,-0.1423729509115219
1772883672716060400,8.211060302734374,8.781659126281738,3.002394199371338,-0.20757736265659332
1772883672732643600,8.2276435546875,8.59322452545166,3.10528564453125,-0.19621145725250244
1772883672749250000,8.24425,8.522636413574219,3.248854875564575,-0.2757728099822998
1772883672765854200,8.260854248046876,8.606983184814453,3.331407308578491,-0.3332005441188812
1772883672782459600,8.277459716796875,8.745168685913086,3.3571300506591797,-0.3577269911766052
1772883672799063800,8.294063720703125,8.651848793029785,3.4241292476654053,-0.48095735907554626
1772883672815652900,8.31065283203125,8.552546501159668,3.61435866355896,-0.48873403668403625
1772883672832274400,8.3272744140625,8.632107734680176,3.7160534858703613,-0.5312066078186035
1772883672848879600,8.343879638671876,9.068798065185547,3.634697675704956,-0.5533402562141418
1772883672865484800,8.36048486328125,9.472586631774902,3.5671002864837646,-0.46061834692955017
1772883672882090200,8.37709033203125,9.600004196166992,3.466003656387329,-0.251844584941864
1772883672898694100,8.393694091796876,9.691530227661133,3.5090744495391846,-0.12263216078281403
1772883672915285200,8.41028515625,10.284950256347656,3.6699917316436768,-0.32123643159866333
1772883672931904500,8.426904541015626,11.184053421020508,3.610769271850586,-0.623330295085907
1772883672948510000,8.443510009765625,11.69432258605957,3.401397466659546,-0.7232306599617004
1772883672965115100,8.460115234375,11.447263717651367,3.5617165565490723,-0.7639086246490479
1772883672981720300,8.47672021484375,11.057233810424805,3.6957144737243652,-0.7076773047447205
1772883672998307800,8.493307861328125,11.050054550170898,3.4205398559570312,-0.4181457459926605
1772883673014916900,8.509916748046875,11.699706077575684,3.0855448246002197,-0.09870393574237823
1772883673031509800,8.526509765625,12.553345680236816,2.486740827560425,-0.06041877344250679
1772883673048126700,8.543126708984374,12.695120811462402,1.8137595653533936,-0.08554340898990631
1772883673064731600,8.559731689453125,12.33081340789795,1.2891331911087036,-0.2111666053533554
1772883673081336800,8.5763369140625,11.770893096923828,0.9176474809646606,-0.5886343717575073
1772883673097929200,8.59292919921875,10.715060234069824,0.7597211599349976,-0.8327022790908813
1772883673114534100,8.6095341796875,9.714859962463379,0.9744769930839539,-0.9068797826766968
1772883673131155500,8.626155517578125,8.909076690673828,1.2921242713928223,-0.9762716293334961
1772883673147771600,8.642771728515624,8.146963119506836,1.6235301494598389,-0.9840483069419861
1772883673164375300,8.659375244140625,7.691728591918945,1.8867406845092773,-1.0462616682052612
1772883673180980700,8.675980712890626,7.53559684753418,2.0578274726867676,-1.054038405418396
1772883673197585400,8.69258544921875,7.498507976531982,2.2295124530792236,-1.0666006803512573
1772883673214174500,8.709174560546876,7.7222371101379395,2.331207513809204,-0.9332008361816406
1772883673230796300,8.72579638671875,7.901100158691406,2.3545374870300293,-0.6137589812278748
1772883673247402000,8.742402099609375,8.050053596496582,2.392822742462158,-0.4085744619369507
1772883673264010500,8.759010498046875,8.067401885986328,2.465205430984497,-0.48454657196998596
1772883673280606500,8.7756064453125,8.146963119506836,2.5154547691345215,-0.6185446381568909
1772883673297215700,8.7922158203125,8.215158462524414,2.4580271244049072,-0.5575276613235474
1772883673313820200,8.808820068359376,8.524430274963379,2.5196423530578613,-0.625723123550415
1772883673330426600,8.825426513671875,8.816354751586914,2.536990165710449,-0.6323033571243286
1772883673347032000,8.842031982421876,8.988637924194336,2.5435705184936523,-0.6281159520149231
1772883673363636200,8.85863623046875,8.742177963256836,2.62313175201416,-0.6981059908866882
1772883673380241700,8.87524169921875,8.309675216674805,2.65842604637146,-0.9535398483276367
1772883673396846300,8.891846435546874,8.102097511291504,2.7942185401916504,-0.8458628058433533
1772883673413436000,8.908435791015625,8.364709854125977,2.9377880096435547,-0.4731806814670563
1772883673430061300,8.925061279296875,8.778668403625488,2.9718856811523438,0.0077766734175384045
1772883673446657500,8.941657470703126,8.877371788024902,2.950350284576416,0.39421752095222473
1772883673463283200,8.958283203125,8.46760082244873,3.094517946243286,0.3978067636489868
1772883673479855600,8.974855712890625,7.969295978546143,3.3296127319335938,0.23449662327766418
1772883673496459800,8.991459716796875,8.011768341064453,3.3403804302215576,0.16271193325519562
1772883673513055500,9.008055419921876,8.163712501525879,3.3433713912963867,-0.05802594870328903
