time,seconds_elapsed,z,y,x
1772883664629365200,0.124365234375,-0.08032877743244171,-0.13790282607078552,-0.28099802136421204
1772883664645941000,0.14094091796875,-0.016035212203860283,-0.18005253374576569,-0.2255619913339615
1772883664662566100,0.157566162109375,0.06108652427792549,-0.22082778811454773,-0.19364428520202637
1772883664679166000,0.174166015625,0.1508837193250656,-0.1722639948129654,-0.17776179313659668
1772883664695775500,0.190775390625,0.23640485107898712,-0.07956519722938538,-0.1840231567621231
1772883664712380200,0.207380126953125,0.3075706362724304,-0.031001411378383636,-0.22800545394420624
1772883664728984000,0.223984130859375,0.3539963960647583,-0.001527163083665073,-0.18677204847335815
1772883664745604000,0.24060400390625,0.3445279896259308,0.03940080851316452,-0.07284568250179291
1772883664762212000,0.257212158203125,0.26481008529663086,-0.07422012835741043,-0.06291911751031876
1772883664778815200,0.273815185546875,0.1992947906255722,-0.25305092334747314,-0.1514945775270462
1772883664795414000,0.2904140625,0.2330450862646103,-0.2710714638233185,-0.15302173793315887
1772883664812023000,0.30702294921875,0.4024074673652649,-0.06001751124858856,-0.020311269909143448
1772883664828627200,0.323627197265625,0.5923865437507629,0.10949759185314178,0.16081027686595917
1772883664845230600,0.340230712890625,0.6817256212234497,0.13500121235847473,0.35262197256088257
1772883664861820400,0.3568203125,0.627358615398407,-0.031001411378383636,0.4486805200576782
1772883664878434800,0.373434814453125,0.43249258399009705,-0.2454151064157486,0.37720927596092224
1772883664895054800,0.390054931640625,0.16539175808429718,-0.23609942197799683,0.3045163154602051
1772883664911659800,0.40665966796875,-0.096211276948452,-0.17088955640792847,0.24419337511062622
1772883664928256800,0.4232568359375,-0.3315471112728119,-0.040622539818286896,0.20555615425109863
1772883664944846600,0.4398466796875,-0.49357911944389343,0.2252565622329712,0.21930062770843506
1772883664961499600,0.456499755859375,-0.5485569834709167,0.47601673007011414,0.23518311977386475
1772883664978074000,0.47307421875,-0.5221370458602905,0.5681046843528748,0.2509129047393799
1772883664994668800,0.489668701171875,-0.45066583156585693,0.5380195379257202,0.3254384696483612
1772883665011283200,0.506283203125,-0.40301835536956787,0.4737260043621063,0.5056437253952026
1772883665027886000,0.522885986328125,-0.3675881624221802,0.3098613917827606,0.7712173461914062
1772883665044494800,0.539494873046875,-0.34162637591362,0.01237002108246088,1.0806206464767456
1772883665061096200,0.55609619140625,-0.3104722499847412,-0.3321579694747925,1.3315335512161255
1772883665077720000,0.572719970703125,-0.26893341541290283,-0.5558874011039734,1.476613998413086
1772883665094311700,0.589311767578125,-0.23716843128204346,-0.6374378800392151,1.53525710105896
1772883665110913000,0.6059130859375,-0.24633140861988068,-0.6728680729866028,1.5341880321502686
1772883665127513600,0.622513671875,-0.29794952273368835,-0.6524040699005127,1.4381295442581177
1772883665144111400,0.639111328125,-0.3862195611000061,-0.593913733959198,1.2166908979415894
1772883665160716000,0.655716064453125,-0.461355984210968,-0.5648976564407349,0.90728759765625
1772883665177308700,0.67230859375,-0.5271766781806946,-0.5997169613838196,0.593913733959198
1772883665193925600,0.688925537109375,-0.603687584400177,-0.6666067242622375,0.36132678389549255
1772883665210533000,0.705533203125,-0.6728680729866028,-0.6382014751434326,0.19394971430301666
1772883665227133400,0.722133544921875,-0.6890559792518616,-0.45952337980270386,0.0659734457731247
1772883665243741400,0.738741455078125,-0.6409503817558289,-0.2600758671760559,-0.03527746722102165
1772883665260368000,0.755367919921875,-0.5890268087387085,-0.18570303916931152,-0.08674286305904388
1772883665276955000,0.771954833984375,-0.5429064631462097,-0.2177734673023224,-0.09804387390613556
1772883665293574400,0.788574462890625,-0.5160284042358398,-0.30146199464797974,-0.09239336848258972
1772883665310173700,0.805173583984375,-0.5007568001747131,-0.29535335302352905,-0.051770828664302826
1772883665326780200,0.8217802734375,-0.49586987495422363,-0.2756529450416565,-0.01863138936460018
1772883665343383800,0.8383837890625,-0.46593746542930603,-0.21914790570735931,0.024892758578062057
1772883665359990300,0.854990234375,-0.4236350357532501,-0.17287486791610718,0.06719517707824707
1772883665376591000,0.871591064453125,-0.3781255781650543,-0.11499538272619247,0.12599095702171326
1772883665393204700,0.888204833984375,-0.3245221674442291,-0.08643743395805359,0.16691893339157104
1772883665409804000,0.904803955078125,-0.28496864438056946,-0.08933904021978378,0.18188512325286865
1772883665426408700,0.92140869140625,-0.29138273000717163,-0.09407325088977814,0.1560760736465454
1772883665443005700,0.938005615234375,-0.31841349601745605,-0.08292495459318161,0.08735372871160507
1772883665459585500,0.95458544921875,-0.3289509415626526,-0.0981965884566307,-0.010079276748001575
1772883665476231400,0.9712314453125,-0.2912299931049347,-0.06902777403593063,-0.11972958594560623
1772883665492824300,0.98782421875,-0.2272418737411499,0.00855211354792118,-0.204487144947052
1772883665509436200,1.004436279296875,-0.14309518039226532,0.1085812970995903,-0.23075434565544128
1772883665526025000,1.02102490234375,-0.04214970022439957,0.1647808998823166,-0.18219055235385895
1772883665542647800,1.037647705078125,0.038026362657547,0.06200282275676727,-0.15332718193531036
1772883665559253800,1.054253662109375,0.0731511116027832,-0.05161811411380768,-0.16050484776496887
1772883665575849200,1.07084912109375,0.09544769674539566,-0.11453723162412643,-0.21181751787662506
1772883665592467200,1.08746728515625,0.1186605766415596,-0.17287486791610718,-0.285121351480484
1772883665609066000,1.10406591796875,0.15073099732398987,-0.11423180252313614,-0.3081815242767334
1772883665625651200,1.120651123046875,0.19746218621730804,-0.01542434748262167,-0.3191770911216736
1772883665642248200,1.137248291015625,0.24327708780765533,-0.020005837082862854,-0.4063780903816223
1772883665658863600,1.153863525390625,0.2603813111782074,-0.03497203439474106,-0.5459607839584351
1772883665675476200,1.170476318359375,0.20204368233680725,-0.15027284622192383,-0.7389942407608032
1772883665692079600,1.18707958984375,0.0734565481543541,-0.3399465084075928,-0.8651378750801086
1772883665708693800,1.20369384765625,-0.0529925599694252,-0.37919458746910095,-0.8197811841964722
1772883665725285400,1.220285400390625,-0.11636982858181,-0.15286903083324432,-0.683863639831543
1772883665741897200,1.236897216796875,-0.11713340878486633,0.19853121042251587,-0.5511531829833984
1772883665758511600,1.25351171875,-0.05849034711718559,0.46150869131088257,-0.45723262429237366
1772883665775119400,1.270119384765625,0.03481931984424591,0.6357579827308655,-0.35384368896484375
1772883665791722200,1.28672216796875,0.1495092660188675,0.7347181439399719,-0.22021691501140594
1772883665808327700,1.30332763671875,0.2710714638233185,0.703411340713501,-0.05849034711718559
1772883665824932400,1.319932373046875,0.37461310625076294,0.5787948369979858,0.10323622822761536
1772883665841536300,1.336536376953125,0.45326200127601624,0.3237585723400116,0.22281309962272644
1772883665858140000,1.353139892578125,0.5302310585975647,0.025045474991202354,0.29504790902137756
1772883665874749400,1.36974951171875,0.5919284224510193,-0.22708915174007416,0.29794952273368835
1772883665891365400,1.386365478515625,0.626747727394104,-0.3263547718524933,0.21135938167572021
1772883665907955700,1.402955810546875,0.6218608021736145,-0.2713768780231476,0.09865473955869675
1772883665924569900,1.41956982421875,0.5858197808265686,-0.1498146951198578,0.012828170321881771
1772883665941156900,1.436156982421875,0.5242751240730286,-0.14019356667995453,-0.06169738993048668
1772883665957778200,1.452778076171875,0.4602869749069214,-0.13820825517177582,-0.13515393435955048
1772883665974371000,1.46937109375,0.4528038501739502,-0.07208210229873657,-0.19547687470912933
1772883665990985500,1.4859853515625,0.49098294973373413,0.01191187184303999,-0.19135354459285736
1772883666007582500,1.50258251953125,0.5497786998748779,0.06414084881544113,-0.13759739696979523
1772883666024195600,1.519195556640625,0.6104071140289307,0.07727445662021637,-0.10323622822761536
1772883666040795400,1.53579541015625,0.6366742849349976,0.09269879758358002,-0.09269879758358002
1772883666057408300,1.552408203125,0.6281222105026245,0.1010981947183609,-0.10934487730264664
1772883666074022100,1.569022216796875,0.6076582074165344,0.1414152979850769,-0.12095131725072861
1772883666090612700,1.58561279296875,0.5757405161857605,0.1563815027475357,-0.13209961354732513
1772883666107218200,1.60221826171875,0.5293147563934326,0.1563815027475357,-0.13240504264831543
1772883666123806500,1.618806396484375,0.4631885588169098,0.16737708449363708,-0.12339477986097336
1772883666140416800,1.635416748046875,0.41523563861846924,0.18768835067749023,-0.12476922571659088
1772883666157019400,1.652019287109375,0.37751471996307373,0.21639901399612427,-0.14004085958003998
1772883666173626600,1.668626708984375,0.3065016269683838,0.2076941877603531,-0.20311269164085388
1772883666190231800,1.685231689453125,0.23182335495948792,0.21395555138587952,-0.23594669997692108
1772883666206835000,1.7018349609375,0.1586722433567047,0.22418753802776337,-0.2171625941991806
1772883666223440600,1.718440673828125,0.08765916526317596,0.1264491081237793,-0.17333301901817322
1772883666240056300,1.735056396484375,0.017867809161543846,-0.05757404863834381,-0.08200865983963013
1772883666256672500,1.751672607421875,-0.07376197725534439,-0.16371189057826996,0
1772883666273271000,1.76827099609375,-0.15974126756191254,-0.21471913158893585,-0.005345070734620094
1772883666289873400,1.784873291015625,-0.22113321721553802,-0.19914206862449646,-0.0832303911447525
1772883666306479900,1.80147998046875,-0.260992169380188,-0.17928895354270935,-0.19379699230194092
1772883666323083500,1.81808349609375,-0.31383201479911804,-0.1849394589662552,-0.2790127098560333
1772883666339674600,1.834674560546875,-0.37400224804878235,-0.16783522069454193,-0.31459560990333557
1772883666356297000,1.851296875,-0.42439863085746765,-0.12400564551353455,-0.289702832698822
1772883666372901000,1.867901123046875,-0.41951170563697815,-0.07376197725534439,-0.2102903574705124
1772883666389505500,1.884505615234375,-0.3637702465057373,-0.006108652334660292,-0.11194105446338654
1772883666406107000,1.90110693359375,-0.30146199464797974,-0.047189339995384216,-0.08200865983963013
1772883666422700300,1.9177001953125,-0.2496911734342575,-0.21380282938480377,-0.10186178237199783
1772883666439315500,1.9343154296875,-0.2525927722454071,-0.3335324227809906,-0.12980885803699493
1772883666455928600,1.950928466796875,-0.3393356502056122,-0.380721777677536,-0.18616119027137756
1772883666472528100,1.967528076171875,-0.46639561653137207,-0.3234531581401825,-0.24159720540046692
1772883666489138200,1.98413818359375,-0.5676465034484863,-0.2269364446401596,-0.31322115659713745
1772883666505746000,2.000745849609375,-0.603076696395874,-0.06887505948543549,-0.3920227587223053
1772883666522351400,2.017351318359375,-0.6001750826835632,0.10567969083786011,-0.4456261992454529
1772883666538946000,2.033946044921875,-0.593302845954895,0.2102903574705124,-0.43447789549827576
1772883666555564000,2.05056396484375,-0.6107125282287598,0.26939156651496887,-0.3147483170032501
1772883666572158500,2.067158447265625,-0.6006332635879517,0.32818734645843506,-0.11163562536239624
1772883666588764400,2.083764404296875,-0.5432119369506836,0.34697145223617554,0.061391957104206085
1772883666605371400,2.100371337890625,-0.46822822093963623,0.30054569244384766,0.19135354459285736
1772883666621959700,2.116959716796875,-0.41828998923301697,0.17012597620487213,0.31673362851142883
1772883666638565600,2.133565673828125,-0.41004329919815063,0.013439035043120384,0.4859432876110077
1772883666655176700,2.1501767578125,-0.4499022662639618,-0.16035212576389313,0.5658139586448669
1772883666671778000,2.166778076171875,-0.5177083015441895,-0.31581732630729675,0.5189300179481506
1772883666688387800,2.183387939453125,-0.609338104724884,-0.39935314655303955,0.3790418803691864
1772883666704988700,2.19998876953125,-0.7209737300872803,-0.42348232865333557,0.21105393767356873
1772883666721597200,2.21659716796875,-0.8471173644065857,-0.3674354553222656,0.05726861581206322
1772883666738213400,2.23321337890625,-0.9314168095588684,-0.1889100819826126,-0.06230825558304787
1772883666754820600,2.249820556640625,-0.9476047158241272,0.05345070734620094,-0.13347405195236206
1772883666771428000,2.266427978515625,-0.899040937423706,0.2422080636024475,-0.1966986060142517
1772883666788025900,2.28302587890625,-0.8232936263084412,0.32360586524009705,-0.2292271852493286
1772883666804637000,2.299636962890625,-0.7406741380691528,0.3065016269683838,-0.19104810059070587
1772883666821235700,2.316235595703125,-0.6383541822433472,0.18219055235385895,-0.10995574295520782
1772883666837841700,2.332841552734375,-0.5209153294563293,0.05253441259264946,-0.03237585723400116
1772883666854446800,2.34944677734375,-0.4308127164840698,-0.0679587572813034,-0.0024434609804302454
1772883666871051800,2.3660517578125,-0.36392298340797424,-0.1371392458677292,0.01542434748262167
1772883666887663600,2.38266357421875,-0.33475416898727417,-0.18768835067749023,0.07620543986558914
1772883666904263200,2.39926318359375,-0.33597588539123535,-0.17547103762626648,0.21578814089298248
1772883666920866000,2.415865966796875,-0.32070425152778625,-0.1866193264722824,0.34162637591362
1772883666937468000,2.432468017578125,-0.2877175211906433,-0.18356500566005707,0.38087448477745056
1772883666954082000,2.44908203125,-0.24297164380550385,-0.1459967941045761,0.3449861407279968
1772883666970667300,2.465667236328125,-0.20891591906547546,-0.1082758679986,0.23350323736667633
1772883666987305700,2.4823056640625,-0.18509216606616974,-0.12202033400535583,0.04001167416572571
1772883667003889700,2.4988896484375,-0.16798794269561768,-0.13316862285137177,-0.1359175145626068
1772883667020498400,2.51549853515625,-0.1394299864768982,-0.10262536257505417,-0.260992169380188
1772883667037097000,2.532096923828125,-0.07956519722938538,-0.06108652427792549,-0.38011088967323303
1772883667053725000,2.548724853515625,0.007024950347840786,-0.046273041516542435,-0.4948008358478546
1772883667070313000,2.56531298828125,0.1033889427781105,-0.10018189996480942,-0.5624541640281677
1772883667086916400,2.581916259765625,0.2295326143503189,-0.17760907113552094,-0.5526803135871887
1772883667103519700,2.598519775390625,0.41661009192466736,-0.1638645976781845,-0.4395175576210022
1772883667120117500,2.615117431640625,0.6032294034957886,-0.07864890247583389,-0.31322115659713745
1772883667136718600,2.631718505859375,0.7524332404136658,-0.004734205547720194,-0.27718010544776917
1772883667153327900,2.648327880859375,0.864679753780365,-0.004886921960860491,-0.3689626157283783
1772883667169931800,2.664931884765625,0.8649851679801941,-0.18570303916931152,-0.6101016402244568
1772883667186532600,2.68153271484375,0.7053966522216797,-0.4105014503002167,-0.7954992651939392
1772883667203143000,2.698142822265625,0.46181413531303406,-0.5192354321479797,-0.7530441284179688
1772883667219763000,2.714762939453125,0.2793181240558624,-0.36361753940582275,-0.5126686692237854
1772883667236359700,2.731359619140625,0.24602597951889038,0.09162978827953339,-0.18005253374576569
1772883667252973600,2.7479736328125,0.34376442432403564,0.566119372844696,0.13454307615756989
1772883667269574400,2.764574462890625,0.5239696502685547,0.9392052888870239,0.35521814227104187
1772883667286177300,2.78117724609375,0.7263187766075134,1.1439979076385498,0.46471574902534485
1772883667302785800,2.797785888671875,0.8910996913909912,1.1522445678710938,0.47708576917648315
1772883667319389700,2.8143896484375,0.970054030418396,0.9100365042686462,0.38438695669174194
1772883667335990800,2.83099072265625,0.9537133574485779,0.48059824109077454,0.30146199464797974
1772883667352602600,2.8476025390625,0.9150761365890503,0.04352414980530739,0.29168814420700073
1772883667369206800,2.864206787109375,0.8770498037338257,-0.2617557644844055,0.3202461004257202
1772883667385808000,2.880807861328125,0.7961101531982422,-0.4925101101398468,0.32100969552993774
1772883667402416400,2.89741650390625,0.6673702597618103,-0.5577199459075928,0.289702832698822
1772883667419019300,2.914019287109375,0.5201517343521118,-0.42562034726142883,0.23518311977386475
1772883667435609300,2.930609375,0.4129449129104614,-0.1313360333442688,0.15256360173225403
1772883667452234500,2.947234375,0.39797869324684143,0.2370157092809677,0.06123924255371094
1772883667468834800,2.963834716796875,0.47540587186813354,0.560468852519989,-0.00855211354792118
1772883667485441800,2.98044189453125,0.5879577994346619,0.732122004032135,-0.03588833287358284
1772883667502046500,2.99704638671875,0.6663012504577637,0.6997461318969727,-0.031154127791523933
1772883667518654200,3.013654296875,0.6948592066764832,0.5500841736793518,0.01817324012517929
1772883667535254800,3.0302548828125,0.7020368576049805,0.3602577745914459,0.06352998316287994
1772883667551862500,3.046862548828125,0.6722571849822998,0.2054034322500229,0.055894169956445694
1772883667568465400,3.06346533203125,0.5937610268592834,0.17791450023651123,0.021532999351620674
1772883667585070300,3.0800703125,0.4876231849193573,0.28130343556404114,-0.010079276748001575
1772883667601654300,3.096654296875,0.39187005162239075,0.4132503271102905,-0.03878994286060333
1772883667618261500,3.113261474609375,0.33337971568107605,0.4729624092578888,-0.05757404863834381
1772883667634880800,3.129880859375,0.30543261766433716,0.48869219422340393,-0.025503624230623245
1772883667651475500,3.146475341796875,0.28787025809288025,0.4231768846511841,0.033597588539123535
1772883667668082700,3.163082763671875,0.27458393573760986,0.29336804151535034,0.09514226019382477
1772883667684693000,3.17969287109375,0.2577851414680481,0.15500704944133759,0.16401731967926025
1772883667701281500,3.196281494140625,0.21884247660636902,-0.0009162978967651725,0.21578814089298248
1772883667717915100,3.2129150390625,0.1417207419872284,-0.1638645976781845,0.24633140861988068
1772883667734518300,3.229518310546875,-0.0025961773935705423,-0.2782491147518158,0.23579397797584534
1772883667751123000,3.246123046875,-0.19349156320095062,-0.3588833212852478,0.1547016203403473
1772883667767727600,3.2627275390625,-0.38026362657546997,-0.37522396445274353,0.04245513305068016
1772883667784333000,3.2793330078125,-0.5320636034011841,-0.2506074607372284,-0.0682641938328743
1772883667800938500,3.2959384765625,-0.6067419052124023,0.001832595793530345,-0.15393804013729095
1772883667817542100,3.312542236328125,-0.6174320578575134,0.2565633952617645,-0.22510384023189545
1772883667834144500,3.32914453125,-0.585667073726654,0.40286561846733093,-0.2889392673969269
1772883667850757400,3.34575732421875,-0.5155702829360962,0.45631635189056396,-0.29535335302352905
1772883667867337700,3.362337646484375,-0.4440990388393402,0.42088615894317627,-0.2909245789051056
1772883667883946800,3.37894677734375,-0.39797869324684143,0.29046642780303955,-0.33246341347694397
1772883667900552400,3.395552490234375,-0.3862195611000061,0.16325373947620392,-0.39324450492858887
1772883667917154600,3.412154541015625,-0.39813143014907837,0.038637228310108185,-0.4547891616821289
1772883667933765000,3.42876513671875,-0.4057672321796417,-0.08949175477027893,-0.5022839307785034
1772883667950368000,3.445367919921875,-0.39095374941825867,-0.16554448008537292,-0.471129834651947
1772883667966977300,3.461977294921875,-0.3507893681526184,-0.14523321390151978,-0.3689626157283783
1772883667983579600,3.47857958984375,-0.27947086095809937,-0.08017606288194656,-0.1745547503232956
1772883668000182300,3.495182373046875,-0.2154827117919922,0.03191770985722542,0.0555887371301651
1772883668016806700,3.511806640625,-0.17821992933750153,0.04108068719506264,0.2428189367055893
1772883668033409000,3.528408935546875,-0.12476922571659088,-0.009926560334861279,0.39813143014907837
1772883668050018300,3.545018310546875,-0.05910121276974678,-0.04138612002134323,0.5259549617767334
1772883668066620000,3.561619873046875,-0.016951510682702065,-0.10751228034496307,0.6039929986000061
1772883668083223800,3.578223876953125,-0.03649919852614403,-0.24129177629947662,0.6265950202941895
1772883668099812600,3.5948125,-0.12034045159816742,-0.4360050559043884,0.5859724879264832
1772883668116420000,3.611420166015625,-0.2574796974658966,-0.6023131608963013,0.49296826124191284
1772883668133026000,3.628026123046875,-0.403323769569397,-0.720820963382721,0.327271044254303
1772883668149630700,3.644630615234375,-0.49785518646240234,-0.7142542004585266,0.15485434234142303
1772883668166236400,3.661236328125,-0.5545129179954529,-0.6009386777877808,0
1772883668182840800,3.6778408203125,-0.5535966157913208,-0.40653082728385925,-0.13148874044418335
1772883668199463200,3.694463134765625,-0.5050328373908997,-0.20097467303276062,-0.2548835277557373
1772883668216060200,3.71106005859375,-0.42409318685531616,-0.06811147183179855,-0.4034765064716339
1772883668232671000,3.7276708984375,-0.3263547718524933,-0.03222314268350601,-0.560468852519989
1772883668249278000,3.74427783203125,-0.2623666226863861,-0.1059851199388504,-0.6864598393440247
1772883668265880800,3.760880859375,-0.27718010544776917,-0.166460782289505,-0.7560984492301941
1772883668282484500,3.777484375,-0.30833423137664795,-0.1661553531885147,-0.7861835956573486
1772883668299090700,3.794090576171875,-0.32986724376678467,-0.09208793938159943,-0.7913759350776672
1772883668315695900,3.81069580078125,-0.33735033869743347,-0.0022907445672899485,-0.7623597979545593
1772883668332303600,3.8273037109375,-0.28985556960105896,0.09010262042284012,-0.6983717083930969
1772883668348902000,3.84390185546875,-0.17898350954055786,0.11820242553949356,-0.6221662759780884
1772883668365510700,3.8605107421875,-0.04382958263158798,0.12965615093708038,-0.5213735103607178
1772883668382115000,3.877114990234375,0.058337632566690445,0.10308351367712021,-0.40882155299186707
1772883668398721300,3.89372119140625,0.12400564551353455,0.007177666760981083,-0.313373863697052
1772883668415322400,3.910322265625,0.1823432743549347,-0.12568552792072296,-0.20799961686134338
1772883668431908900,3.926908935546875,0.2580905556678772,-0.19593502581119537,-0.08368854224681854
1772883668448544500,3.94354443359375,0.3474296033382416,-0.20173825323581696,0.05115996301174164
1772883668465109500,3.960109619140625,0.43386703729629517,-0.17043140530586243,0.17073683440685272
1772883668481746200,3.97674609375,0.5152648091316223,-0.18051068484783173,0.23854288458824158
1772883668498351000,3.99335107421875,0.6035348773002625,-0.1927279829978943,0.2828305959701538
1772883668514957800,4.009957763671875,0.7067710757255554,-0.15943582355976105,0.35873061418533325
1772883668531567400,4.0265673828125,0.7672467231750488,-0.12690725922584534,0.43737950921058655
1772883668548159700,4.04315966796875,0.7539604306221008,-0.05925392732024193,0.5048801302909851
1772883668564771800,4.059771728515625,0.6491970419883728,0.0032070425804704428,0.5111414790153503
1772883668581376800,4.076376708984375,0.5010622143745422,0.041233405470848083,0.4144720733165741
1772883668597965000,4.092965087890625,0.3776674270629883,0.05955936014652252,0.2580905556678772
1772883668614569500,4.109569580078125,0.2974913716316223,0.11972958594560623,0.13775011897087097
1772883668631181800,4.126181884765625,0.2298380434513092,0.294437050819397,0.13729196786880493
1772883668647783200,4.142783203125,0.16814066469669342,0.6050620079040527,0.27091872692108154
1772883668664388900,4.159388916015625,0.1774563491344452,0.8759807348251343,0.45463645458221436
1772883668680993000,4.175992919921875,0.28588494658470154,1.0422887802124023,0.6490443348884583
1772883668697616100,4.1926162109375,0.4366159439086914,1.098183035850525,0.8145887851715088
1772883668714217000,4.209217041015625,0.598647952079773,1.035722017288208,0.9066767692565918
1772883668730823000,4.225822998046875,0.7617489695549011,0.8153523802757263,0.90728759765625
1772883668747427600,4.242427490234375,0.878576934337616,0.48227810859680176,0.8275696635246277
1772883668764033000,4.259032958984375,0.9108000993728638,0.13805554807186127,0.6976081132888794
1772883668780633600,4.275633544921875,0.8625417351722717,-0.14446963369846344,0.5406157374382019
1772883668797246700,4.292246826171875,0.7848091125488281,-0.2828305959701538,0.3604104816913605
1772883668813831700,4.308831787109375,0.7055493593215942,-0.31413745880126953,0.1569923609495163
1772883668830453500,4.32545361328125,0.6204863786697388,-0.3248275816440582,-0.08750644326210022
1772883668847058200,4.34205810546875,0.5280929803848267,-0.25763240456581116,-0.25534167885780334
1772883668863663600,4.35866357421875,0.43967026472091675,-0.10781771689653397,-0.30024027824401855
1772883668880263700,4.375263671875,0.4300491213798523,0.022143865004181862,-0.25671613216400146
1772883668896877300,4.391877197265625,0.5140430927276611,0.09407325088977814,-0.19165897369384766
1772883668913478000,4.408477783203125,0.5797111392021179,0.13500121235847473,-0.16829337179660797
1772883668930083800,4.425083740234375,0.5427537560462952,0.09300423413515091,-0.21991148591041565
1772883668946688300,4.441688232421875,0.451582133769989,0.023365596309304237,-0.30253100395202637
1772883668963293700,4.458293701171875,0.3445279896259308,-0.05696318298578262,-0.35842517018318176
1772883668979898600,4.474898681640625,0.25366178154945374,-0.08475755155086517,-0.3660610020160675
1772883668996503800,4.49150390625,0.18631389737129211,0.04046982154250145,-0.3225368559360504
1772883669013108200,4.508108154296875,0.1264491081237793,0.21105393767356873,-0.25534167885780334
1772883669029714400,4.52471435546875,0.04734205827116966,0.3274237811565399,-0.1996002197265625
1772883669046318800,4.54131884765625,-0.032070424407720566,0.30863967537879944,-0.1875356286764145
1772883669062929400,4.557929443359375,-0.08888089656829834,0.23808473348617554,-0.19807305932044983
1772883669079515600,4.574515625,-0.10705413669347763,0.18631389737129211,-0.2093740701675415
1772883669096120800,4.591120849609375,-0.10766500234603882,0.18524488806724548,-0.19776763021945953
1772883669112725200,4.607725341796875,-0.13836097717285156,0.1823432743549347,-0.1270599663257599
1772883669129330700,4.62433056640625,-0.20952677726745605,0.11301007121801376,-0.02367102913558483
1772883669145935600,4.640935546875,-0.3065016269683838,-0.010690141469240189,0.06505715101957321
1772883669162540800,4.657540771484375,-0.40424007177352905,-0.14156801998615265,0.08674286305904388
1772883669179149000,4.674149169921875,-0.5002986192703247,-0.2474004179239273,0.022602014243602753
1772883669195764500,4.690764404296875,-0.5983424782752991,-0.3729332387447357,-0.07299839705228806
1772883669212369000,4.707368896484375,-0.697760820388794,-0.423329621553421,-0.11392636597156525
1772883669228975000,4.72397509765625,-0.7625125646591187,-0.3625485301017761,-0.09666942805051804
1772883669245579800,4.740579833984375,-0.7594582438468933,-0.22159136831760406,-0.06185010448098183
1772883669262203000,4.757202880859375,-0.6991352438926697,-0.044287730008363724,-0.056810468435287476
1772883669278790100,4.7737900390625,-0.6180428862571716,0.06001751124858856,-0.10125091671943665
1772883669295394800,4.790394775390625,-0.554818332195282,0.09957103431224823,-0.16569720208644867
1772883669311999500,4.80699951171875,-0.5403103232383728,0.06322455406188965,-0.2379320114850998
1772883669328606000,4.82360595703125,-0.5442809462547302,-0.022143865004181862,-0.3066543638706207
1772883669345209900,4.8402099609375,-0.5248859524726868,-0.1472185254096985,-0.3338378667831421
1772883669361815300,4.856815185546875,-0.499382346868515,-0.2197587788105011,-0.3407101035118103
1772883669378420200,4.873420166015625,-0.45494189858436584,-0.22770002484321594,-0.31230485439300537
1772883669395025400,4.890025390625,-0.394008070230484,-0.13439035415649414,-0.2295326143503189
1772883669411630000,4.906630126953125,-0.2831360399723053,-0.013744467869400978,-0.1108720451593399
1772883669428236000,4.923236083984375,-0.14752395451068878,0.045204028487205505,0.022602014243602753
1772883669444840400,4.93984033203125,-0.013897184282541275,0.07895433157682419,0.20784689486026764
1772883669461446000,4.95644580078125,0.06200282275676727,0.06536258012056351,0.42012256383895874
1772883669478050800,4.97305078125,0.07452555745840073,-0.11468994617462158,0.551916778087616
1772883669494655700,4.98965576171875,0.03985895588994026,-0.26190847158432007,0.6007859706878662
1772883669511260400,5.006260498046875,-0.05650503560900688,-0.30925053358078003,0.5551238059997559
1772883669527866600,5.02286669921875,-0.18295414745807648,-0.31612277030944824,0.4430300295352936
1772883669544471000,5.039470947265625,-0.3399465084075928,-0.26572638750076294,0.299476683139801
1772883669561077000,5.056076904296875,-0.44806966185569763,-0.1820378452539444,0.12476922571659088
1772883669577664000,5.0726640625,-0.4415028691291809,-0.01466076634824276,-0.01817324012517929
1772883669594273000,5.08927294921875,-0.384845107793808,0.16004669666290283,-0.11133018881082535
1772883669610877400,5.10587744140625,-0.3179553747177124,0.2799290120601654,-0.16829337179660797
1772883669627483000,5.12248291015625,-0.27550023794174194,0.3501785099506378,-0.1869247704744339
1772883669644087600,5.139087646484375,-0.2444988191127777,0.3822489380836487,-0.1621847152709961
1772883669660691200,5.155691162109375,-0.2018909603357315,0.3292563557624817,-0.13439035415649414
1772883669677317000,5.172317138671875,-0.14508049190044403,0.1999056488275528,-0.14508049190044403
1772883669693916700,5.188916748046875,-0.09437867999076843,-0.004428773187100887,-0.19456058740615845
1772883669710521300,5.205521240234375,-0.06414084881544113,-0.23258693516254425,-0.2474004179239273
1772883669727127000,5.222126953125,-0.06582073122262955,-0.4283692538738251,-0.26679539680480957
1772883669743731700,5.238731689453125,-0.0858265683054924,-0.5245805382728577,-0.2594650089740753
1772883669760337000,5.2553369140625,-0.11362093687057495,-0.48655417561531067,-0.23884831368923187
1772883669776942300,5.2719423828125,-0.1495092660188675,-0.37950003147125244,-0.2330450862646103
1772883669793547300,5.28854736328125,-0.1736384481191635,-0.2871066629886627,-0.23273965716362
1772883669810151700,5.305151611328125,-0.1745547503232956,-0.23258693516254425,-0.23182335495948792
1772883669826758000,5.3217578125,-0.1699732542037964,-0.22067506611347198,-0.23548854887485504
1772883669843362000,5.338362060546875,-0.16814066469669342,-0.23518311977386475,-0.26832255721092224
1772883669859968300,5.35496826171875,-0.16584990918636322,-0.22098049521446228,-0.33108896017074585
1772883669876572700,5.37157275390625,-0.16050484776496887,-0.20372356474399567,-0.42577308416366577
1772883669893177600,5.388177490234375,-0.13744467496871948,-0.16172657907009125,-0.5083925724029541
1772883669909782000,5.404781982421875,-0.08979719132184982,-0.09224065393209457,-0.5381723046302795
1772883669926388000,5.421387939453125,-0.0064140851609408855,-0.0064140851609408855,-0.5064072608947754
1772883669942992600,5.43799267578125,0.10002918541431427,0.012980886735022068,-0.3891211748123169
1772883669959598600,5.4545986328125,0.20295998454093933,0.10293079167604446,-0.16829337179660797
1772883669976202800,5.47120263671875,0.2588541507720947,0.15454891324043274,0.03481931984424591
1772883669992808700,5.48780859375,0.2591595947742462,0.03237585723400116,0.10980302840471268
1772883670009412600,5.50441259765625,0.21884247660636902,-0.1270599663257599,0.06429356336593628
1772883670026001700,5.521001708984375,0.19578230381011963,-0.342695415019989,-0.07956519722938538
1772883670042623500,5.53762353515625,0.17531833052635193,-0.536797821521759,-0.26740625500679016
1772883670059211800,5.554211669921875,0.10262536257505417,-0.5584835410118103,-0.3646865487098694
1772883670075819500,5.570819580078125,-0.008704829961061478,-0.36132678389549255,-0.3124575614929199
1772883670092425200,5.58742529296875,-0.08674286305904388,-0.07192938029766083,-0.12370020896196365
1772883670109029400,5.604029296875,-0.08002334833145142,0.09758572280406952,0.15943582355976105
1772883670125635600,5.620635498046875,0.014508049935102463,0.15714508295059204,0.4967861473560333
1772883670142239700,5.63723974609375,0.1498146951198578,0.14767667651176453,0.8246681094169617
1772883670158833400,5.65383349609375,0.2935207486152649,0.13240504264831543,1.127810001373291
1772883670175467500,5.670467529296875,0.43676865100860596,0.24037547409534454,1.372156023979187
1772883670192068900,5.68706884765625,0.5335907936096191,0.30634891986846924,1.4984524250030518
1772883670208673500,5.703673583984375,0.5623014569282532,0.20906862616539001,1.524566888809204
1772883670225279500,5.720279541015625,0.5459607839584351,0.03451388701796532,1.5028811693191528
1772883670241884000,5.7368837890625,0.49586987495422363,-0.03787364438176155,1.4285084009170532
1772883670258490400,5.753490478515625,0.42989641427993774,0.031612277030944824,1.2959506511688232
1772883670275093800,5.77009375,0.3459024429321289,0.12079860270023346,1.0876455307006836
1772883670291700200,5.7867001953125,0.24098633229732513,0.15164729952812195,0.8165740966796875
1772883670308292000,5.8032919921875,0.1563815027475357,0.15012013912200928,0.5308418869972229
1772883670324909800,5.819909912109375,0.11743884533643723,0.1287398487329483,0.24617868661880493
1772883670341515300,5.836515380859375,0.13041973114013672,0.07987063378095627,-0.011453723534941673
1772883670358120000,5.853119873046875,0.18906278908252716,0.038179077208042145,-0.18387043476104736
1772883670374724400,5.869724365234375,0.26572638750076294,0.0012217304902151227,-0.25595253705978394
1772883670391330300,5.886330322265625,0.33399057388305664,-0.09483683109283447,-0.2817615866661072
1772883670407934500,5.9029345703125,0.35873061418533325,-0.23594669997692108,-0.3045163154602051
1772883670424541000,5.919541015625,0.3214678466320038,-0.31154128909111023,-0.3197879493236542
1772883670441144600,5.93614453125,0.23289237916469574,-0.3075706362724304,-0.3176499307155609
1772883670457751000,5.9527509765625,0.14385876059532166,-0.2816088795661926,-0.30054569244384766
1772883670474354700,5.969354736328125,0.07223481684923172,-0.21762074530124664,-0.235030397772789
1772883670490960400,5.98596044921875,0.04337143152952194,-0.10461067408323288,-0.10965031385421753
1772883670507564800,6.002564697265625,0.06918048858642578,0.07528914511203766,0.06688974797725677
1772883670524170500,6.01917041015625,0.10033461451530457,0.2295326143503189,0.24419337511062622
1772883670540775000,6.03577490234375,0.0780380368232727,0.26710084080696106,0.3303253948688507
1772883670557364000,6.052364013671875,0.010995574295520782,0.2050980031490326,0.31291571259498596
1772883670573971700,6.0689716796875,-0.08857546001672745,0.12003502249717712,0.24358251690864563
1772883670590577200,6.0855771484375,-0.20357084274291992,0.09178250283002853,0.16401731967926025
1772883670607181600,6.102181640625,-0.3026837408542633,0.04306599870324135,0.11102475970983505
1772883670623787300,6.118787353515625,-0.3599523603916168,0.010995574295520782,0.12461651116609573
1772883670640392000,6.135391845703125,-0.40133845806121826,0.04382958263158798,0.1472185254096985
1772883670656997600,6.15199755859375,-0.4427245855331421,0.03680463135242462,0.13087788224220276
1772883670673619000,6.168618896484375,-0.5216789245605469,0.031154127791523933,0.08292495459318161
1772883670690221300,6.18522119140625,-0.5830708742141724,0.007024950347840786,0.014508049935102463
1772883670706825700,6.20182568359375,-0.5963571667671204,-0.023060163483023643,-0.05619960278272629
1772883670723431400,6.218431396484375,-0.5884159207344055,-0.05192354694008827,-0.11911872029304504
1772883670740027400,6.23502734375,-0.5510004758834839,-0.03955352306365967,-0.1518000066280365
1772883670756642000,6.25164208984375,-0.5001459121704102,-0.048105638474226,-0.17409659922122955
1772883670773245700,6.26824560546875,-0.4818199574947357,-0.1160643994808197,-0.25213462114334106
1772883670789852200,6.28485205078125,-0.4815145432949066,-0.24694228172302246,-0.4086688458919525
1772883670806443500,6.301443603515625,-0.484416127204895,-0.41752639412879944,-0.580016553401947
1772883670823061800,6.318061767578125,-0.483957976102829,-0.47830748558044434,-0.6600399017333984
1772883670839667000,6.3346669921875,-0.4674646258354187,-0.34605515003204346,-0.5942191481590271
1772883670856272600,6.351272705078125,-0.3911064863204956,-0.06505715101957321,-0.418748140335083
1772883670872860400,6.3678603515625,-0.26282477378845215,0.2344195395708084,-0.17898350954055786
1772883670889483000,6.38448291015625,-0.1264491081237793,0.3767511546611786,0.0607810914516449
1772883670906070000,6.401070068359375,-0.0065668015740811825,0.3075706362724304,0.29046642780303955
1772883670922692900,6.41769287109375,0.08475755155086517,0.10903944820165634,0.5233588218688965
1772883670939297300,6.43429736328125,0.13026700913906097,-0.12950342893600464,0.7247915863990784
1772883670955903000,6.450903076171875,0.12797626852989197,-0.2877175211906433,0.8483390808105469
1772883670972507100,6.467507080078125,0.0910189226269722,-0.3124575614929199,0.9153815507888794
1772883670989112600,6.484112548828125,0.016493361443281174,-0.2733621895313263,0.9228646755218506
1772883671005700600,6.50070068359375,-0.06765332818031311,-0.31902438402175903,0.8200865983963013
1772883671022320000,6.517320068359375,-0.17379115521907806,-0.4124867618083954,0.6389650702476501
1772883671038913300,6.533913330078125,-0.3165809214115143,-0.46822822093963623,0.4386012554168701
1772883671055519500,6.55051953125,-0.4691445231437683,-0.4957171380519867,0.22250767052173615
1772883671072115500,6.567115478515625,-0.5862779021263123,-0.5381723046302795,0.016340645030140877
1772883671088730000,6.583730224609375,-0.6481280326843262,-0.4792237877845764,-0.1189660057425499
1772883671105333800,6.600333740234375,-0.6114761233329773,-0.2554943859577179,-0.1768454909324646
1772883671121939700,6.616939697265625,-0.44318273663520813,0.055741455405950546,-0.19257527589797974
1772883671138541800,6.633541748046875,-0.18631389737129211,0.34865134954452515,-0.17638733983039856
1772883671155155700,6.65015576171875,0.08307767659425735,0.47601673007011414,-0.12599095702171326
1772883671171767600,6.666767578125,0.2776382565498352,0.38835757970809937,-0.07483099400997162
1772883671188373000,6.683373046875,0.39843684434890747,0.1771509200334549,-0.06398813426494598
1772883671204978000,6.69997802734375,0.46181413531303406,-0.031001411378383636,-0.08384125679731369
1772883671221577700,6.71657763671875,0.49556443095207214,-0.17577648162841797,-0.06108652427792549
1772883671238189800,6.73318994140625,0.49693888425827026,-0.23579397797584534,0.018478672951459885
1772883671254797800,6.7497978515625,0.4590652287006378,-0.18936823308467865,0.09376781433820724
1772883671271398100,6.766398193359375,0.39614611864089966,-0.16982053220272064,0.0933096632361412
1772883671288003600,6.783003662109375,0.3280346393585205,-0.12370020896196365,0.0503963828086853
1772883671304592100,6.799592041015625,0.2877175211906433,-0.021380282938480377,-0.03878994286060333
1772883671321214000,6.8162138671875,0.2791654169559479,0.050243668258190155,-0.1696678251028061
1772883671337818000,6.832818115234375,0.2742784917354584,0.04092797264456749,-0.2643519341945648
1772883671354420200,6.849420166015625,0.25045475363731384,0.03298672288656235,-0.19226983189582825
1772883671371032600,6.866032470703125,0.21013765037059784,0.08750644326210022,-0.021991148591041565
1772883671387634200,6.88263427734375,0.19120082259178162,0.1212567538022995,0.10995574295520782
1772883671404238300,6.89923828125,0.18845193088054657,0.08521570265293121,0.12782354652881622
1772883671420829400,6.915829345703125,0.19624045491218567,0.03298672288656235,0.0809396430850029
1772883671437451800,6.93245166015625,0.2102903574705124,0.038026362657547,0.008399397134780884
1772883671454052400,6.94905224609375,0.1869247704744339,0.06750060617923737,-0.044135015457868576
1772883671470642400,6.965642333984375,0.11285735666751862,0.06948592513799667,-0.03527746722102165
1772883671487264500,6.982264404296875,0.04092797264456749,0.01924225501716137,-0.0039706239476799965
1772883671503869000,6.998868896484375,-0.016493361443281174,-0.026572637259960175,-0.058184914290905
1772883671520458200,7.015458251953125,-0.022907447069883347,0.08597928285598755,-0.13561208546161652
1772883671537062400,7.0320625,-0.012217304669320583,0.24633140861988068,-0.21349740028381348
1772883671553671200,7.048671142578125,-0.025503624230623245,0.3352122902870178,-0.35246923565864563
1772883671570275600,7.065275634765625,-0.03573561832308769,0.1716531366109848,-0.5074763298034668
1772883671586881500,7.081881591796875,-0.06719517707824707,-0.08811730891466141,-0.5757405161857605
1772883671603485700,7.098485595703125,-0.13148874044418335,-0.23380866646766663,-0.49098294973373413
1772883671620091400,7.11509130859375,-0.15943582355976105,-0.11942415684461594,-0.2658790946006775
1772883671636696000,7.131696044921875,-0.0757472887635231,0.0705549344420433,0.02076941914856434
1772883671653319000,7.14831884765625,0.13805554807186127,0.29565876722335815,0.3452915847301483
1772883671669919200,7.164919189453125,0.39706242084503174,0.5361869931221008,0.5928447246551514
1772883671686525200,7.181525146484375,0.6380487680435181,0.5740606188774109,0.697149932384491
1772883671786155800,7.28115576171875,0.49037206172943115,-0.0354301854968071,0.21594086289405823
1772883671802760200,7.29776025390625,0.39904773235321045,0.007635815534740686,-0.023518312722444534
1772883671819363600,7.314363525390625,0.3637702465057373,0.11224649101495743,-0.22510384023189545
1772883671835954700,7.33095458984375,0.34376442432403564,0.22876903414726257,-0.35582900047302246
1772883671852576300,7.347576171875,0.3341432809829712,0.3254384696483612,-0.43875396251678467
1772883671869180400,7.364180419921875,0.3604104816913605,0.3988949954509735,-0.5320636034011841
1772883671885785900,7.380785888671875,0.41661009192466736,0.42088615894317627,-0.603687584400177
1772883671902390300,7.397390380859375,0.4833471179008484,0.4331034719944,-0.6227771043777466
1772883671918980600,7.413980712890625,0.5366451144218445,0.38179078698158264,-0.6189591884613037
1772883671935601400,7.430601318359375,0.5561928153038025,0.290313720703125,-0.5384777188301086
1772883671952207000,7.44720703125,0.5250386595726013,0.2626720666885376,-0.39553526043891907
1772883671968810800,7.463810791015625,0.48655417561531067,0.19792033731937408,-0.24174992740154266
1772883671985416200,7.480416259765625,0.45952337980270386,0.16081027686595917,-0.1238529309630394
1772883672002020900,7.497020751953125,0.4360050559043884,0.16844609379768372,-0.08781187981367111
1772883672018590200,7.513590087890625,0.399200439453125,0.1518000066280365,-0.0988074541091919
1772883672035217400,7.530217529296875,0.3507893681526184,0.09285151958465576,-0.12034045159816742
1772883672051819300,7.5468193359375,0.30283644795417786,0.036651913076639175,-0.1319468915462494
1772883672068417300,7.563417236328125,0.25732699036598206,-0.0507018156349659,-0.12736541032791138
1772883672085033200,7.580033203125,0.21059578657150269,-0.16630806028842926,-0.09346238523721695
1772883672101637600,7.5966376953125,0.15790866315364838,-0.3381139039993286,-0.0685696229338646
1772883672118243300,7.613243408203125,0.0933096632361412,-0.460897833108902,-0.028099801391363144
1772883672134848000,7.629847900390625,0.01572977937757969,-0.43799036741256714,-0.01664607785642147
1772883672151471000,7.64647119140625,-0.05146539583802223,-0.3674354553222656,-0.048105638474226
1772883672168071400,7.663071533203125,-0.12980885803699493,-0.3510948121547699,-0.08216137439012527
1772883672184676900,7.6796767578125,-0.22739458084106445,-0.31383201479911804,-0.061391957104206085
1772883672201281800,7.69628173828125,-0.31780263781547546,-0.24908030033111572,-0.01191187184303999
1772883672217870600,7.71287060546875,-0.3614795207977295,-0.31841349601745605,-0.04153883829712868
1772883672234492700,7.72949267578125,-0.3804163336753845,-0.4398229718208313,-0.11484266817569733
1772883672251097300,7.746097412109375,-0.4355469346046448,-0.3381139039993286,-0.1385136991739273
1772883672267702800,7.762702880859375,-0.5247332453727722,-0.1342376321554184,-0.19562959671020508
1772883672284307500,7.779307373046875,-0.5810855627059937,0.06994406878948212,-0.33826664090156555
1772883672300912000,7.795912109375,-0.623235285282135,0.21731531620025635,-0.5274821519851685
1772883672317517600,7.812517578125,-0.6721044778823853,0.24419337511062622,-0.7301366925239563
1772883672334126000,7.8291259765625,-0.6934847831726074,0.2616030275821686,-0.8284859657287598
1772883672350724900,7.845724853515625,-0.6317873597145081,0.3321579694747925,-0.683863639831543
1772883672367332600,7.86233251953125,-0.4607451260089874,0.4648684561252594,-0.3049744665622711
1772883672383937800,7.878937744140625,-0.2715296149253845,0.5804746747016907,0.08827003091573715
1772883672400542700,7.895542724609375,-0.1443169116973877,0.6348416805267334,0.3776674270629883
1772883672417138000,7.912137939453125,-0.10155634582042694,0.48976120352745056,0.4911356568336487
1772883672433746700,7.92874658203125,-0.10277807712554932,0.1921171247959137,0.49144110083580017
1772883672450358000,7.94535791015625,-0.11621711403131485,-0.07987063378095627,0.49953505396842957
1772883672466963200,7.961963134765625,-0.1514945775270462,-0.19074267148971558,0.5155702829360962
1772883672483568400,7.978568359375,-0.21700987219810486,-0.28099802136421204,0.4407392740249634
1772883672500173000,7.995173095703125,-0.31123584508895874,-0.327271044254303,0.26282477378845215
1772883672516761300,8.01176123046875,-0.43050727248191833,-0.28848111629486084,0.0507018156349659
1772883672533369600,8.02836962890625,-0.5294674634933472,-0.22510384023189545,-0.1595885455608368
1772883672549975300,8.044975341796874,-0.575893223285675,-0.10720685124397278,-0.28267788887023926
1772883672566579500,8.061579345703125,-0.5937610268592834,0.04382958263158798,-0.2942843437194824
1772883672583184600,8.0781845703125,-0.5824599862098694,0.1514945775270462,-0.2373211532831192
1772883672599789600,8.09478955078125,-0.5477933883666992,0.17287486791610718,-0.1748601794242859
1772883672616395300,8.111395263671875,-0.4960225820541382,0.13225232064723969,-0.14309518039226532
1772883672633000200,8.128000244140624,-0.4398229718208313,0.03222314268350601,-0.1696678251028061
1772883672649622300,8.144622314453125,-0.40133845806121826,-0.052381694316864014,-0.20891591906547546
1772883672666223900,8.161223876953125,-0.38637226819992065,-0.03176499158143997,-0.2119702398777008
1772883672682829600,8.17782958984375,-0.35384368896484375,0.06001751124858856,-0.17592918872833252
1772883672699433200,8.19443310546875,-0.30970868468284607,0.1235474944114685,-0.11850785464048386
1772883672716060400,8.211060302734374,-0.2733621895313263,0.10674870014190674,-0.06658431142568588
1772883672732643600,8.2276435546875,-0.24129177629947662,0.0981965884566307,-0.052839845418930054
1772883672749250000,8.24425,-0.20005837082862854,0.15561792254447937,-0.08918632566928864
1772883672765854200,8.260854248046876,-0.16768251359462738,0.18860463798046112,-0.1336267739534378
1772883672782459600,8.277459716796875,-0.168751522898674,0.18906278908252716,-0.13973543047904968
1772883672799063800,8.294063720703125,-0.15714508295059204,0.23365595936775208,-0.12736541032791138
1772883672815652900,8.31065283203125,-0.11804971098899841,0.28267788887023926,-0.11774427443742752
1772883672832274400,8.3272744140625,-0.11133018881082535,0.2093740701675415,-0.12828169763088226
1772883672848879600,8.343879638671876,-0.0988074541091919,0.014355333521962166,-0.11285735666751862
1772883672865484800,8.36048486328125,-0.08567385375499725,-0.13011430203914642,-0.05192354694008827
1772883672882090200,8.37709033203125,-0.05665775015950203,-0.10354165732860565,-0.02932153269648552
1772883672898694100,8.393694091796876,-0.018020525574684143,0.023518312722444534,-0.08170322328805923
1772883672915285200,8.41028515625,-0.016951510682702065,0.033139441162347794,-0.154396191239357
1772883672931904500,8.426904541015626,-0.0003054326225537807,0.025503624230623245,-0.12568552792072296
1772883672948510000,8.443510009765625,0.038179077208042145,0.026572637259960175,0.02367102913558483
1772883672965115100,8.460115234375,0.10720685124397278,0.1466076523065567,0.1598939746618271
1772883672981720300,8.47672021484375,0.1469130963087082,0.14782938361167908,0.1371392458677292
1772883672998307800,8.493307861328125,0.1485929638147354,-0.058795779943466187,-0.02535090781748295
1772883673014916900,8.509916748046875,0.07483099400997162,-0.2724458873271942,-0.22296582162380219
1772883673031509800,8.526509765625,-0.02932153269648552,-0.4075998365879059,-0.2255619913339615
1772883673048126700,8.543126708984374,-0.08827003091573715,-0.41202861070632935,-0.06551529467105865
1772883673064731600,8.559731689453125,-0.08491026610136032,-0.2681698501110077,0.11667526513338089
1772883673081336800,8.5763369140625,0.00809396430850029,-0.026419922709465027,0.318566232919693
1772883673097929200,8.59292919921875,0.19028452038764954,0.26374107599258423,0.5251913666725159
1772883673114534100,8.6095341796875,0.36911532282829285,0.4769330322742462,0.6244570016860962
1772883673131155500,8.626155517578125,0.5022839307785034,0.6148358583450317,0.6927211880683899
1772883673147771600,8.642771728515624,0.5713117122650146,0.5826127529144287,0.7347181439399719
1772883673164375300,8.659375244140625,0.5949827432632446,0.3119994103908539,0.73685622215271
1772883673180980700,8.675980712890626,0.5960517525672913,-0.04489859566092491,0.7093672752380371
1772883673197585400,8.69258544921875,0.6023131608963013,-0.27947086095809937,0.6398813724517822
1772883673214174500,8.709174560546876,0.6027712821960449,-0.3966042697429657,0.55069500207901
1772883673230796300,8.72579638671875,0.589179515838623,-0.34513887763023376,0.4323398768901825
1772883673247402000,8.742402099609375,0.5592471361160278,-0.1359175145626068,0.3130684494972229
1772883673264010500,8.759010498046875,0.48915034532546997,-0.04535674303770065,0.2047925740480423
1772883673280606500,8.7756064453125,0.44196099042892456,-0.05054909735918045,0.08597928285598755
1772883673297215700,8.7922158203125,0.4027129113674164,-0.053297992795705795,-0.046731192618608475
1772883673313820200,8.808820068359376,0.40653082728385925,0.08521570265293121,-0.154396191239357
1772883673330426600,8.825426513671875,0.43997567892074585,0.28557950258255005,-0.2142609804868698
1772883673347032000,8.842031982421876,0.4818199574947357,0.5390886068344116,-0.20494529604911804
1772883673363636200,8.85863623046875,0.470060795545578,0.7081455588340759,-0.1563815027475357
1772883673380241700,8.87524169921875,0.46273043751716614,0.6140722632408142,-0.13927727937698364
1772883673396846300,8.891846435546874,0.4763221740722656,0.3116939961910248,-0.16661348938941956
1772883673413436000,8.908435791015625,0.4518875777721405,-0.05497787147760391,-0.1609629988670349
1772883673430061300,8.925061279296875,0.3888157308101654,-0.3147483170032501,-0.10506882518529892
1772883673446657500,8.941657470703126,0.31154128909111023,-0.17989981174468994,-0.00855211354792118
1772883673463283200,8.958283203125,0.2405281960964203,0.11285735666751862,-0.02321287989616394
1772883673479855600,8.974855712890625,0.18600846827030182,0.3240640163421631,-0.16569720208644867
1772883673496459800,8.991459716796875,0.08109235763549805,0.3246748745441437,-0.3248275816440582
1772883673513055500,9.008055419921876,0.004581489134579897,0.1999056488275528,-0.29856038093566895
