time,seconds_elapsed,z,y,x
1772883664641790500,0.13679052734375,-0.02015855349600315,-0.17302757501602173,-0.2324342280626297
1772883664658438700,0.153438720703125,0.041233405470848083,-0.21731531620025635,-0.19944749772548676
1772883664675018200,0.170018310546875,0.1290452778339386,-0.19349156320095062,-0.18325957655906677
1772883664691623400,0.18662353515625,0.21807889640331268,-0.1007927656173706,-0.17791450023651123
1772883664708227800,0.203227783203125,0.2922990322113037,-0.03527746722102165,-0.21960605680942535
1772883664724834000,0.219833984375,0.34636059403419495,-0.014966198243200779,-0.21135938167572021
1772883664741504300,0.236504150390625,0.35643985867500305,0.03940080851316452,-0.09972374886274338
1772883664758057000,0.253056884765625,0.28756481409072876,-0.03420845419168472,-0.05268712714314461
1772883664774669800,0.269669921875,0.21135938167572021,-0.20784689486026764,-0.1319468915462494
1772883664791267600,0.286267578125,0.21181751787662506,-0.2932153046131134,-0.16829337179660797
1772883664807870500,0.302870361328125,0.35262197256088257,-0.12324206531047821,-0.0633772686123848
1772883664824477700,0.319477783203125,0.5520694851875305,0.08002334833145142,0.1134682223200798
1772883664841066500,0.33606640625,0.6731734871864319,0.14385876059532166,0.30344730615615845
1772883664857673000,0.3526728515625,0.6546948552131653,0.024587325751781464,0.4415028691291809
1772883664874297600,0.369297607421875,0.4928155243396759,-0.20861047506332397,0.39904773235321045
1772883664890896600,0.385896728515625,0.23487769067287445,-0.2515237629413605,0.318566232919693
1772883664907502300,0.40250244140625,-0.03176499158143997,-0.18906278908252716,0.256868839263916
1772883664924107300,0.419107177734375,-0.27611109614372253,-0.08597928285598755,0.20815233886241913
1772883664940719600,0.4357197265625,-0.46242499351501465,0.15271630883216858,0.21319197118282318
1772883664957329200,0.4523291015625,-0.5433646440505981,0.4219551682472229,0.23090706765651703
1772883664973930800,0.4689306640625,-0.5338962078094482,0.5644394755363464,0.24434609711170197
1772883664990526200,0.485526123046875,-0.4665483236312866,0.5476406812667847,0.2967278063297272
1772883665007133000,0.5021328125,-0.41141775250434875,0.4966334402561188,0.45142942667007446
1772883665023744300,0.518744140625,-0.3747658133506775,0.36483925580978394,0.6976081132888794
1772883665040345000,0.535344970703125,-0.3471241891384125,0.09315694868564606,1.003498911857605
1772883665056947500,0.551947509765625,-0.31780263781547546,-0.2480112910270691,1.2785409688949585
1772883665073559000,0.56855908203125,-0.2796235680580139,-0.5157229900360107,1.4495831727981567
1772883665090152400,0.58515234375,-0.24113905429840088,-0.6259841322898865,1.523956060409546
1772883665106761700,0.60176171875,-0.23839016258716583,-0.6669121384620667,1.540602207183838
1772883665123370200,0.618370361328125,-0.2799290120601654,-0.66584312915802,1.4717271327972412
1772883665139957800,0.634957763671875,-0.3623957931995392,-0.6059783101081848,1.2817480564117432
1772883665156564500,0.651564453125,-0.4434881806373596,-0.5690209865570068,0.988379955291748
1772883665173167600,0.668167724609375,-0.5097670555114746,-0.5852088928222656,0.6647741198539734
1772883665189780200,0.6847802734375,-0.5829181671142578,-0.6517932415008545,0.4108068645000458
1772883665206379500,0.701379638671875,-0.6572909951210022,-0.6612616181373596,0.2292271852493286
1772883665222985700,0.71798583984375,-0.6899722814559937,-0.5157229900360107,0.09468411654233932
1772883665239591700,0.734591796875,-0.6546948552131653,-0.2964223623275757,-0.01466076634824276
1772883665256199200,0.75119921875,-0.6007859706878662,-0.1950187236070633,-0.08155050873756409
1772883665272814300,0.767814453125,-0.551916778087616,-0.1992947906255722,-0.09804387390613556
1772883665289422000,0.784422119140625,-0.5204572081565857,-0.28649580478668213,-0.10018189996480942
1772883665306022700,0.801022705078125,-0.502436637878418,-0.3013092875480652,-0.0607810914516449
1772883665322636300,0.81763623046875,-0.49724429845809937,-0.285121351480484,-0.029626963660120964
1772883665339233000,0.83423291015625,-0.4755585789680481,-0.23197607696056366,0.014966198243200779
1772883665355839200,0.850839111328125,-0.4332561790943146,-0.1846340149641037,0.052839845418930054
1772883665372446000,0.867446044921875,-0.38896843791007996,-0.12828169763088226,0.11163562536239624
1772883665389050000,0.884050048828125,-0.3376557528972626,-0.09178250283002853,0.15790866315364838
1772883665405659400,0.900659423828125,-0.289702832698822,-0.08460483700037003,0.1791362315416336
1772883665422260700,0.9172607421875,-0.2848159074783325,-0.09697485715150833,0.166460782289505
1772883665438860800,0.93386083984375,-0.3113885521888733,-0.0835358202457428,0.10674870014190674
1772883665455467500,0.950467529296875,-0.32849279046058655,-0.09865473955869675,0.01572977937757969
1772883665472084000,0.967083984375,-0.3049744665622711,-0.08078692853450775,-0.09498954564332962
1772883665488671000,0.9836708984375,-0.24236078560352325,-0.012064588256180286,-0.18784105777740479
1772883665505285600,1.00028564453125,-0.1661553531885147,0.08231408894062042,-0.23396138846874237
1772883665521888500,1.016888427734375,-0.0659734457731247,0.16203200817108154,-0.19853121042251587
1772883665538499300,1.033499267578125,0.023365596309304237,0.09834930300712585,-0.15760323405265808
1772883665555099400,1.050099365234375,0.06841690838336945,-0.03145955875515938,-0.15592335164546967
1772883665571721500,1.066721435546875,0.09056077152490616,-0.0959058403968811,-0.19486601650714874
1772883665588311000,1.08331103515625,0.1137736514210701,-0.166460782289505,-0.26939156651496887
1772883665604916200,1.099916259765625,0.1420261710882187,-0.14126259088516235,-0.3095559775829315
1772883665621517800,1.116517822265625,0.1866193264722824,-0.030237829312682152,-0.3110831379890442
1772883665638109000,1.13310888671875,0.23380866646766663,-0.01664607785642147,-0.38087448477745056
1772883665654723000,1.14972314453125,0.2632829248905182,-0.02779436856508255,-0.5053382515907288
1772883665671324400,1.166324462890625,0.22586742043495178,-0.10949759185314178,-0.6919575929641724
1772883665687927300,1.18292724609375,0.11010845750570297,-0.2961169183254242,-0.849255383014679
1772883665704535800,1.199535888671875,-0.025656340643763542,-0.3962988257408142,-0.8471173644065857
1772883665721137200,1.21613720703125,-0.10522153973579407,-0.22876903414726257,-0.7211264371871948
1772883665737742300,1.232742431640625,-0.12232576310634613,0.10919216275215149,-0.5820018649101257
1772883665754364700,1.24936474609375,-0.07635815441608429,0.40882155299186707,-0.4795292317867279
1772883665770966000,1.265966064453125,0.009773843921720982,0.5965099334716797,-0.3833179473876953
1772883665787571700,1.28257177734375,0.12064588814973831,0.7214318513870239,-0.25824329257011414
1772883665804177700,1.299177734375,0.24358251690864563,0.7206682562828064,-0.10002918541431427
1772883665820781000,1.315781005859375,0.351400226354599,0.6185010671615601,0.06383541971445084
1772883665837386200,1.33238623046875,0.4355469346046448,0.39813143014907837,0.1973094791173935
1772883665853993500,1.348993408203125,0.5123631954193115,0.09789115190505981,0.2799290120601654
1772883665870596400,1.365596435546875,0.579405665397644,-0.17379115521907806,0.30512720346450806
1772883665887203300,1.382203369140625,0.6227771043777466,-0.3188716471195221,0.23900102078914642
1772883665903805700,1.3988056640625,0.6272059082984924,-0.29886582493782043,0.12339477986097336
1772883665920415700,1.415415771484375,0.5981897711753845,-0.1745547503232956,0.032070424407720566
1772883665937017000,1.43201708984375,0.5435173511505127,-0.13347405195236206,-0.04489859566092491
1772883665953623600,1.44862353515625,0.47418415546417236,-0.14553864300251007,-0.11713340878486633
1772883665970226400,1.465226318359375,0.45036038756370544,-0.0933096632361412,-0.18631389737129211
1772883665986832600,1.48183251953125,0.4804455041885376,-0.008246680721640587,-0.20082195103168488
1772883666003442200,1.498442138671875,0.535881519317627,0.056352317333221436,-0.15241087973117828
1772883666020042200,1.515042236328125,0.59803706407547,0.07406741380691528,-0.11178833991289139
1772883666036649000,1.53164892578125,0.6366742849349976,0.09010262042284012,-0.09239336848258972
1772883666053255400,1.54825537109375,0.632398247718811,0.09651670604944229,-0.1062905490398407
1772883666069859600,1.564859619140625,0.6146831512451172,0.1313360333442688,-0.11927144229412079
1772883666086459000,1.581458984375,0.5867360830307007,0.15500704944133759,-0.13118331134319305
1772883666103069200,1.598069091796875,0.5438227653503418,0.15577064454555511,-0.13454307615756989
1772883666119655000,1.614655029296875,0.4812090992927551,0.16233743727207184,-0.12553280591964722
1772883666136264400,1.631264404296875,0.42531493306159973,0.18066339194774628,-0.12553280591964722
1772883666152870100,1.6478701171875,0.3903428912162781,0.21105393767356873,-0.13286319375038147
1772883666169463000,1.664463134765625,0.3271183371543884,0.2122756689786911,-0.18814650177955627
1772883666186080300,1.681080322265625,0.2506074607372284,0.20891591906547546,-0.23487769067287445
1772883666202692600,1.697692626953125,0.17730364203453064,0.2269364446401596,-0.22586742043495178
1772883666219291400,1.71429150390625,0.1059851199388504,0.16523905098438263,-0.1898263692855835
1772883666235898400,1.7308984375,0.03833179548382759,-0.015882495790719986,-0.11010845750570297
1772883666252515800,1.747515869140625,-0.04963280260562897,-0.14446963369846344,-0.014966198243200779
1772883666269117700,1.76411767578125,-0.1385136991739273,-0.20891591906547546,0.0032070425804704428
1772883666285724400,1.780724365234375,-0.20754146575927734,-0.20876319706439972,-0.058948494493961334
1772883666302330600,1.79733056640625,-0.2496911734342575,-0.18096883594989777,-0.16737708449363708
1772883666318934500,1.8139345703125,-0.29856038093566895,-0.18387043476104736,-0.26404649019241333
1772883666335537200,1.830537109375,-0.35873061418533325,-0.17348572611808777,-0.3116939961910248
1772883666352147700,1.847147705078125,-0.413097620010376,-0.1385136991739273,-0.3023782968521118
1772883666368748800,1.863748779296875,-0.427452951669693,-0.08552113175392151,-0.23487769067287445
1772883666385357000,1.880357177734375,-0.3778201639652252,-0.023060163483023643,-0.13377949595451355
1772883666401960400,1.89696044921875,-0.31612277030944824,-0.01664607785642147,-0.08277224004268646
1772883666418560500,1.913560546875,-0.25824329257011414,-0.17333301901817322,-0.09728029370307922
1772883666435174400,1.93017431640625,-0.24236078560352325,-0.31062498688697815,-0.12049316614866257
1772883666451776800,1.94677685546875,-0.3098613917827606,-0.3784310221672058,-0.1719585657119751
1772883666468379600,1.963379638671875,-0.43386703729629517,-0.3446807265281677,-0.2301434874534607
1772883666484985000,1.979985107421875,-0.5464189648628235,-0.25274550914764404,-0.29275718331336975
1772883666501592800,1.9965927734375,-0.5981897711753845,-0.11698069423437119,-0.375529408454895
1772883666518195200,2.0131953125,-0.6017022728919983,0.06780604273080826,-0.43768495321273804
1772883666534799400,2.02979931640625,-0.5905539989471436,0.19120082259178162,-0.44577890634536743
1772883666551409400,2.046409423828125,-0.6070473194122314,0.2545780837535858,-0.35781431198120117
1772883666568009200,2.06300927734375,-0.6064364910125732,0.3149010241031647,-0.16249015927314758
1772883666584616700,2.07961669921875,-0.5595525503158569,0.3478877544403076,0.021532999351620674
1772883666601220000,2.09622021484375,-0.4856378734111786,0.31810808181762695,0.16249015927314758
1772883666617808100,2.11280810546875,-0.42500948905944824,0.2119702398777008,0.28069257736206055
1772883666634418000,2.12941796875,-0.4072943925857544,0.0503963828086853,0.44425174593925476
1772883666651024100,2.146024169921875,-0.4356996417045593,-0.11514809727668762,0.5581781268119812
1772883666667627500,2.16262744140625,-0.4964807331562042,-0.28359419107437134,0.5393940210342407
1772883666684234200,2.179234130859375,-0.5845980644226074,-0.3845396637916565,0.4178318381309509
1772883666700837400,2.19583740234375,-0.6884451508522034,-0.42302417755126953,0.2519819140434265
1772883666717444900,2.21244482421875,-0.8170322775840759,-0.3929390609264374,0.09300423413515091
1772883666734063400,2.2290634765625,-0.9152288436889648,-0.2444988191127777,-0.03787364438176155
1772883666750670800,2.2456708984375,-0.9492846131324768,-0.00733038317412138,-0.1186605766415596
1772883666767271700,2.262271728515625,-0.9135489463806152,0.20570887625217438,-0.18188512325286865
1772883666783876400,2.27887646484375,-0.8425359129905701,0.3094032406806946,-0.22846360504627228
1772883666800482000,2.29548193359375,-0.7611380815505981,0.32391130924224854,-0.20616702735424042
1772883666817088000,2.312087890625,-0.6675229668617249,0.21823160350322723,-0.1339322030544281
1772883666833676800,2.3286767578125,-0.5461135506629944,0.08277224004268646,-0.048105638474226
1772883666850297300,2.34529736328125,-0.45066583156585693,-0.04199698567390442,-0.007788531947880983
1772883666866900500,2.361900390625,-0.37690386176109314,-0.12308934330940247,0.00809396430850029
1772883666883509800,2.378509765625,-0.3361285924911499,-0.17959438264369965,0.051770828664302826
1772883666900109600,2.395109619140625,-0.33597588539123535,-0.1817324161529541,0.17608191072940826
1772883666916715800,2.4117158203125,-0.3243694305419922,-0.18096883594989777,0.3171917796134949
1772883666933324000,2.428323974609375,-0.2974913716316223,-0.19104810059070587,0.37797287106513977
1772883666949927000,2.444927001953125,-0.252287358045578,-0.1569923609495163,0.3588833212852478
1772883666966528300,2.4615283203125,-0.2151772826910019,-0.11530081182718277,0.2684752643108368
1772883666983142100,2.47814208984375,-0.18936823308467865,-0.11621711403131485,0.0887281745672226
1772883666999745000,2.4947451171875,-0.17088955640792847,-0.13286319375038147,-0.09865473955869675
1772883667016344300,2.51134423828125,-0.14798210561275482,-0.11560624837875366,-0.23350323736667633
1772883667032953600,2.52795361328125,-0.09651670604944229,-0.06841690838336945,-0.3491095006465912
1772883667049561600,2.5445615234375,-0.014355333521962166,-0.048258353024721146,-0.470060795545578
1772883667066157800,2.56115771484375,0.07910704612731934,-0.0757472887635231,-0.5523748993873596
1772883667082769000,2.577768798828125,0.19349156320095062,-0.16569720208644867,-0.5658139586448669
1772883667099373000,2.594373046875,0.36713001132011414,-0.1771509200334549,-0.4769330322742462
1772883667115961600,2.610961669921875,0.5612324476242065,-0.10064005106687546,-0.33948835730552673
1772883667132570000,2.627570068359375,0.7180721163749695,-0.024129176512360573,-0.2782491147518158
1772883667149176300,2.64417626953125,0.8439103364944458,0.012828170321881771,-0.33047810196876526
1772883667165779000,2.660779052734375,0.8820894360542297,-0.1290452778339386,-0.5459607839584351
1772883667182395400,2.6773955078125,0.7594582438468933,-0.36163222789764404,-0.769079327583313
1772883667198991000,2.6939912109375,0.5244278311729431,-0.5112941861152649,-0.7867944240570068
1772883667215598600,2.7105986328125,0.313373863697052,-0.43615779280662537,-0.5870414972305298
1772883667232214300,2.72721435546875,0.24129177629947662,-0.03634648025035858,-0.26740625500679016
1772883667248819000,2.74381884765625,0.3113885521888733,0.45662176609039307,0.060933809727430344
1772883667265410800,2.760410888671875,0.4749477207660675,0.8570439219474792,0.3110831379890442
1772883667282029800,2.77702978515625,0.6786713004112244,1.1102476119995117,0.4450153410434723
1772883667298637800,2.793637939453125,0.856433093547821,1.170875906944275,0.484416127204895
1772883667315230200,2.810230224609375,0.9622654914855957,0.9934195876121521,0.4103487432003021
1772883667331844900,2.826844970703125,0.964403510093689,0.5974262356758118,0.3149010241031647
1772883667348449000,2.843448974609375,0.9242390990257263,0.14049901068210602,0.28649580478668213
1772883667365054500,2.860054443359375,0.8897252082824707,-0.19226983189582825,0.31322115659713745
1772883667381668600,2.876668701171875,0.8225300312042236,-0.4460843503475189,0.32360586524009705
1772883667398263300,2.89326318359375,0.7040221691131592,-0.5598580241203308,0.29764407873153687
1772883667414854000,2.90985400390625,0.5564982295036316,-0.47739118337631226,0.24908030033111572
1772883667431497700,2.926497802734375,0.4331034719944,-0.2145664244890213,0.1742493063211441
1772883667448083000,2.9430830078125,0.3930917978286743,0.1443169116973877,0.08078692853450775
1772883667464670200,2.959670166015625,0.4512766897678375,0.4899139404296875,0.0039706239476799965
1772883667481290000,2.9762900390625,0.5621487498283386,0.7082982659339905,-0.033597588539123535
1772883667497893600,2.9928935546875,0.6536257863044739,0.7235698699951172,-0.03741549700498581
1772883667514504400,3.00950439453125,0.6918048858642578,0.5904012322425842,0.002138028386980295
1772883667531103500,3.026103515625,0.703411340713501,0.4098905920982361,0.05497787147760391
1772883667547722800,3.04272265625,0.684474527835846,0.23289237916469574,0.0607810914516449
1772883667564316400,3.05931640625,0.6188064813613892,0.17302757501602173,0.029474247246980667
1772883667580920800,3.0759208984375,0.5166392922401428,0.2444988191127777,-0.0039706239476799965
1772883667597519600,3.09251953125,0.41401392221450806,0.38759398460388184,-0.03145955875515938
1772883667614119200,3.109119140625,0.3449861407279968,0.46334129571914673,-0.05757404863834381
1772883667630723000,3.12572314453125,0.31154128909111023,0.49128836393356323,-0.038637228310108185
1772883667647330300,3.142330322265625,0.2938261926174164,0.446389764547348,0.01725694350898266
1772883667663932700,3.1589326171875,0.2782491147518158,0.33017265796661377,0.07635815441608429
1772883667680539600,3.17553955078125,0.2632829248905182,0.18829920887947083,0.14645494520664215
1772883667697139000,3.192138916015625,0.23335053026676178,0.04001167416572571,0.2054034322500229
1772883667713769500,3.20876953125,0.1670716404914856,-0.1258382350206375,0.2399173229932785
1772883667730367200,3.2253671875,0.04184427112340927,-0.25595253705978394,0.24297164380550385
1772883667746972200,3.24197216796875,-0.14416420459747314,-0.34147366881370544,0.1791362315416336
1772883667763577600,3.25857763671875,-0.3341432809829712,-0.3828597962856293,0.06902777403593063
1772883667780183300,3.275183349609375,-0.4990769028663635,-0.2968805134296417,-0.04306599870324135
1772883667796787200,3.291787109375,-0.5946773290634155,-0.06780604273080826,-0.13668109476566315
1772883667813376000,3.3083759765625,-0.6185010671615601,0.20082195103168488,-0.20799961686134338
1772883667829997800,3.324997802734375,-0.5957463383674622,0.37827831506729126,-0.2765692472457886
1772883667846603500,3.341603515625,-0.5340489149093628,0.4488332271575928,-0.3003929853439331
1772883667863170600,3.358170654296875,-0.4586070775985718,0.4392121136188507,-0.28985556960105896
1772883667879797200,3.37479736328125,-0.4046982228755951,0.32528573274612427,-0.31841349601745605
1772883667896409000,3.3914091796875,-0.3854559659957886,0.19349156320095062,-0.379652738571167
1772883667912998000,3.407997802734375,-0.39248090982437134,0.06872233748435974,-0.4392121136188507
1772883667929615600,3.42461572265625,-0.40362921357154846,-0.05742133408784866,-0.4970915913581848
1772883667946219500,3.441219482421875,-0.3959933817386627,-0.15714508295059204,-0.48747047781944275
1772883667962824700,3.45782470703125,-0.3617849349975586,-0.15271630883216858,-0.403323769569397
1772883667979430700,3.4744306640625,-0.29764407873153687,-0.10415252298116684,-0.22968533635139465
1772883667996034800,3.491034912109375,-0.22708915174007416,0.008399397134780884,-0.001832595793530345
1772883668012643300,3.507643310546875,-0.1866193264722824,0.04993823543190956,0.19975294172763824
1772883668029258500,3.524258544921875,-0.1391245573759079,-0.00045814894838258624,0.3597996234893799
1772883668045864700,3.54086474609375,-0.0731511116027832,-0.03191770985722542,0.49693888425827026
1772883668062468900,3.55746875,-0.021991148591041565,-0.08659014850854874,0.5871942043304443
1772883668079073500,3.574073486328125,-0.022602014243602753,-0.19944749772548676,0.6265950202941895
1772883668095661000,3.5906611328125,-0.09285151958465576,-0.3862195611000061,0.5994115471839905
1772883668112271000,3.60727099609375,-0.21853704750537872,-0.5641340613365173,0.5213735103607178
1772883668128875800,3.623875732421875,-0.3695734739303589,-0.6988298296928406,0.37308594584465027
1772883668145480400,3.64048046875,-0.4769330322742462,-0.7299839854240417,0.1941024363040924
1772883668162085600,3.657085693359375,-0.543059229850769,-0.6382014751434326,0.03680463135242462
1772883668178691600,3.673691650390625,-0.5597052574157715,-0.46013423800468445,-0.10262536257505417
1772883668195298800,3.690298828125,-0.5195409059524536,-0.24663683772087097,-0.22311852872371674
1772883668211902700,3.70690283203125,-0.44516804814338684,-0.09407325088977814,-0.3643811047077179
1772883668228519400,3.72351953125,-0.3497203588485718,-0.02977968007326126,-0.5233588218688965
1772883668245126100,3.740126220703125,-0.2698497176170349,-0.08506298810243607,-0.661719799041748
1772883668261729800,3.756729736328125,-0.26801711320877075,-0.154396191239357,-0.7443392872810364
1772883668278334500,3.77333447265625,-0.2997821271419525,-0.17608191072940826,-0.7819074988365173
1772883668294939600,3.789939697265625,-0.32498031854629517,-0.11209376901388168,-0.7938193678855896
1772883668311553000,3.806552978515625,-0.3376557528972626,-0.028557950630784035,-0.7739662528038025
1772883668328149800,3.823149658203125,-0.3068070709705353,0.07391469180583954,-0.7170031070709229
1772883668344755500,3.83975537109375,-0.20983220636844635,0.11407908797264099,-0.6446155309677124
1772883668361360000,3.85635986328125,-0.076052725315094,0.12858712673187256,-0.5499314665794373
1772883668377966000,3.872966064453125,0.038026362657547,0.11499538272619247,-0.43615779280662537
1772883668394570200,3.8895703125,0.11056660860776901,0.038637228310108185,-0.3390302062034607
1772883668411147000,3.90614697265625,0.16783522069454193,-0.09743300825357437,-0.2379320114850998
1772883668427776300,3.9227763671875,0.23808473348617554,-0.1843285858631134,-0.11682797968387604
1772883668444390700,3.939390625,0.3271183371543884,-0.2076941877603531,0.01725694350898266
1772883668460949000,3.955948974609375,0.4129449129104614,-0.17577648162841797,0.14294247329235077
1772883668477603600,3.972603515625,0.4966334402561188,-0.17379115521907806,0.22602014243602753
1772883668494200600,3.98920068359375,0.579405665397644,-0.19303341209888458,0.2678644061088562
1772883668510806500,4.005806640625,0.683863639831543,-0.17012597620487213,0.33658674359321594
1772883668527411000,4.022410888671875,0.7588473558425903,-0.13469578325748444,0.4161519408226013
1772883668544016600,4.0390166015625,0.7672467231750488,-0.07880161702632904,0.4893030524253845
1772883668560621000,4.05562109375,0.6846272349357605,-0.008246680721640587,0.5190827250480652
1772883668577227300,4.072227294921875,0.5387831330299377,0.03176499158143997,0.4456261992454529
1772883668593814000,4.08881396484375,0.40515637397766113,0.05650503560900688,0.2958115041255951
1772883668610422500,4.105422607421875,0.3159700334072113,0.09651670604944229,0.16019940376281738
1772883668627027700,4.12202783203125,0.24816401302814484,0.23625212907791138,0.12079860270023346
1772883668643634000,4.138634033203125,0.18112154304981232,0.5229006409645081,0.22892175614833832
1772883668660238000,4.155238037109375,0.16691893339157104,0.8193230032920837,0.40591996908187866
1772883668676843000,4.171843017578125,0.25274550914764404,1.0097602605819702,0.6001750826835632
1772883668693465300,4.18846533203125,0.39843684434890747,1.0945178270339966,0.7771732807159424
1772883668710079500,4.20507958984375,0.5583308339118958,1.063821792602539,0.8912523984909058
1772883668726672600,4.221672607421875,0.722959041595459,0.884227454662323,0.9152288436889648
1772883668743277000,4.238277099609375,0.8581129312515259,0.5705481171607971,0.8523097038269043
1772883668759882000,4.254882080078125,0.9121745228767395,0.22128593921661377,0.7316638231277466
1772883668776488200,4.27148828125,0.8814785480499268,-0.08491026610136032,0.5812382698059082
1772883668793091800,4.288091796875,0.8063421249389648,-0.2623666226863861,0.40591996908187866
1772883668809676800,4.3046767578125,0.727998673915863,-0.3119994103908539,0.21273382008075714
1772883668826306300,4.321306396484375,0.6433938145637512,-0.32268956303596497,-0.028557950630784035
1772883668842907000,4.337906982421875,0.5535966157913208,-0.28756481409072876,-0.22678372263908386
1772883668859512600,4.3545126953125,0.4590652287006378,-0.14706580340862274,-0.29993483424186707
1772883668876117500,4.371117431640625,0.42378777265548706,-0.004123340360820293,-0.2733621895313263
1772883668892722400,4.387722412109375,0.4889976382255554,0.07956519722938538,-0.20754146575927734
1772883668909312300,4.404312255859375,0.5739079117774963,0.13011430203914642,-0.16814066469669342
1772883668925916400,4.42091650390625,0.561079740524292,0.1088867336511612,-0.20326541364192963
1772883668942538000,4.4375380859375,0.47769662737846375,0.04214970022439957,-0.2834414839744568
1772883668959143200,4.45414306640625,0.3724750876426697,-0.0377209298312664,-0.34895676374435425
1772883668975749400,4.470749267578125,0.27488934993743896,-0.09056077152490616,-0.36942076683044434
1772883668992353000,4.48735302734375,0.20295998454093933,-0.0032070425804704428,-0.3378084897994995
1772883669008939000,4.50393896484375,0.14294247329235077,0.17043140530586243,-0.2744311988353729
1772883669025563600,4.520563720703125,0.07070764899253845,0.30833423137664795,-0.21151208877563477
1772883669042169300,4.53716943359375,-0.013286318629980087,0.3228422701358795,-0.18860463798046112
1772883669058776300,4.5537763671875,-0.07773260027170181,0.2574796974658966,-0.1963931769132614
1772883669075372500,4.57037255859375,-0.10384709388017654,0.19349156320095062,-0.20815233886241913
1772883669091970000,4.586969970703125,-0.10506882518529892,0.18325957655906677,-0.20693060755729675
1772883669108587000,4.6035869140625,-0.12522737681865692,0.18677204847335815,-0.15057829022407532
1772883669125180400,4.620180419921875,-0.18784105777740479,0.13759739696979523,-0.052228979766368866
1772883669141785600,4.63678564453125,-0.2802344262599945,0.023518312722444534,0.047189339995384216
1772883669158390300,4.653390380859375,-0.37980547547340393,-0.11362093687057495,0.08735372871160507
1772883669174995000,4.669994873046875,-0.47418415546417236,-0.21930062770843506,0.045204028487205505
1772883669191617300,4.6866171875,-0.5722280144691467,-0.3452915847301483,-0.052839845418930054
1772883669208208400,4.70320849609375,-0.6724098920822144,-0.4216497242450714,-0.11056660860776901
1772883669224824300,4.71982421875,-0.7518224120140076,-0.3868304193019867,-0.10781771689653397
1772883669241430300,4.73643017578125,-0.7651087045669556,-0.2646573781967163,-0.0708603709936142
1772883669258039600,4.75303955078125,-0.7171558141708374,-0.08445212244987488,-0.05467243865132332
1772883669274635300,4.76963525390625,-0.6374378800392151,0.041691552847623825,-0.08811730891466141
1772883669291244300,4.786244384765625,-0.566119372844696,0.0959058403968811,-0.1495092660188675
1772883669307834000,4.802834228515625,-0.5386304259300232,0.07483099400997162,-0.22128593921661377
1772883669324455000,4.819454833984375,-0.5439754724502563,0.01237002108246088,-0.29184088110923767
1772883669341059600,4.8360595703125,-0.5297728776931763,-0.12751811742782593,-0.3338378667831421
1772883669357665300,4.852665283203125,-0.5051855444908142,-0.19944749772548676,-0.3410155177116394
1772883669374271200,4.869271240234375,-0.46639561653137207,-0.2396118938922882,-0.327271044254303
1772883669390874600,4.88587451171875,-0.41233405470848083,-0.16142113506793976,-0.25473082065582275
1772883669407465200,4.90246533203125,-0.31444287300109863,-0.04260785132646561,-0.14324790239334106
1772883669424085200,4.919085205078125,-0.18051068484783173,0.04046982154250145,-0.014355333521962166
1772883669440691200,4.935691162109375,-0.0429132841527462,0.06490442901849747,0.15347988903522491
1772883669457296100,4.952296142578125,0.05207626149058342,0.0861319974064827,0.37171149253845215
1772883669473900500,4.968900634765625,0.07513642311096191,-0.06276640295982361,0.5254968404769897
1772883669490505200,4.985505126953125,0.05696318298578262,-0.23686300218105316,0.5957463383674622
1772883669507095000,5.002094970703125,-0.02779436856508255,-0.299476683139801,0.5736024379730225
1772883669523715600,5.018715576171875,-0.1469130963087082,-0.32162055373191833,0.47418415546417236
1772883669540321000,5.035321044921875,-0.2996293902397156,-0.27870726585388184,0.3376557528972626
1772883669556926200,5.05192626953125,-0.4311181604862213,-0.21105393767356873,0.16554448008537292
1772883669573514800,5.0685146484375,-0.4492913782596588,-0.06230825558304787,0.012217304669320583
1772883669590122000,5.0851220703125,-0.40026944875717163,0.12003502249717712,-0.09300423413515091
1772883669606716200,5.101716064453125,-0.33200526237487793,0.25595253705978394,-0.1589776873588562
1772883669623332600,5.11833251953125,-0.28359419107437134,0.33597588539123535,-0.18768835067749023
1772883669639938600,5.1349384765625,-0.2515237629413605,0.37950003147125244,-0.17211128771305084
1772883669656536800,5.151536865234375,-0.21410827338695526,0.3501785099506378,-0.14004085958003998
1772883669673151000,5.16815087890625,-0.15790866315364838,0.24129177629947662,-0.1391245573759079
1772883669689766100,5.18476611328125,-0.10491610318422318,0.050243668258190155,-0.18188512325286865
1772883669706356200,5.201356201171875,-0.06811147183179855,-0.17623461782932281,-0.23686300218105316
1772883669722976800,5.217976806640625,-0.06169738993048668,-0.3859141170978546,-0.26633724570274353
1772883669739581400,5.23458154296875,-0.07956519722938538,-0.5138903856277466,-0.26481008529663086
1772883669756187100,5.251187255859375,-0.10430523753166199,-0.5073235630989075,-0.2451096773147583
1772883669772776200,5.267776123046875,-0.13988813757896423,-0.40591996908187866,-0.23518311977386475
1772883669789396500,5.284396484375,-0.16798794269561768,-0.3084869384765625,-0.2330450862646103
1772883669805988900,5.30098876953125,-0.17516560852527618,-0.24129177629947662,-0.2330450862646103
1772883669822607000,5.317607177734375,-0.1693623960018158,-0.2203696370124817,-0.23457226157188416
1772883669839212800,5.334212890625,-0.16630806028842926,-0.2330450862646103,-0.2574796974658966
1772883669855817700,5.350817626953125,-0.16554448008537292,-0.2278527319431305,-0.3153591752052307
1772883669872422400,5.36742236328125,-0.16203200817108154,-0.20906862616539001,-0.40286561846733093
1772883669889026800,5.38402685546875,-0.14385876059532166,-0.17348572611808777,-0.49266281723976135
1772883669905615400,5.400615478515625,-0.10461067408323288,-0.11468994617462158,-0.5381723046302795
1772883669922237400,5.417237548828125,-0.02932153269648552,-0.02229658141732216,-0.5215262174606323
1772883669938842400,5.43384228515625,0.07452555745840073,0.007635815534740686,-0.43050727248191833
1772883669955447600,5.450447509765625,0.18005253374576569,0.07192938029766083,-0.23121249675750732
1772883669972036900,5.467036865234375,0.25366178154945374,0.1592831164598465,-0.005039638374000788
1772883669988658000,5.483657958984375,0.2635883390903473,0.07208210229873657,0.10033461451530457
1772883670005272000,5.50027197265625,0.23121249675750732,-0.08231408894062042,0.0858265683054924
1772883670021864200,5.5168642578125,0.19853121042251587,-0.2883284091949463,-0.03878994286060333
1772883670038478300,5.533478271484375,0.18509216606616974,-0.4966334402561188,-0.22250767052173615
1772883670055062000,5.55006201171875,0.12736541032791138,-0.5781839489936829,-0.35643985867500305
1772883670071669200,5.566669189453125,0.020005837082862854,-0.42577308416366577,-0.3400992155075073
1772883670088274700,5.583274658203125,-0.07254024595022202,-0.14126259088516235,-0.18219055235385895
1772883670104871400,5.599871337890625,-0.08979719132184982,0.06979135423898697,0.08200865983963013
1772883670121484500,5.616484619140625,-0.013286318629980087,0.1472185254096985,0.4098905920982361
1772883670138089700,5.63308984375,0.11514809727668762,0.1592831164598465,0.7449501752853394
1772883670154691800,5.64969189453125,0.25824329257011414,0.1235474944114685,1.0534371137619019
1772883670171321000,5.666321044921875,0.4040873646736145,0.20662516355514526,1.31916344165802
1772883670187918300,5.68291845703125,0.5166392922401428,0.3043636083602905,1.4767667055130005
1772883670204496000,5.699495849609375,0.5619960427284241,0.2480112910270691,1.5241087675094604
1772883670221128700,5.716128662109375,0.5540547966957092,0.07376197725534439,1.5114333629608154
1772883670237734700,5.732734619140625,0.5119050741195679,-0.03481931984424591,1.4506522417068481
1772883670254339000,5.749339111328125,0.44944411516189575,0.007177666760981083,1.3351987600326538
1772883670270927400,5.76592724609375,0.37079519033432007,0.10201449692249298,1.146135926246643
1772883670287532800,5.78253271484375,0.2681698501110077,0.14844025671482086,0.8862127661705017
1772883670304150500,5.799150634765625,0.17531833052635193,0.15164729952812195,0.6006332635879517
1772883670320762000,5.81576220703125,0.12263119965791702,0.1368338167667389,0.31459560990333557
1772883670337364500,5.832364501953125,0.12461651116609573,0.08979719132184982,0.04657847434282303
1772883670353969000,5.848968994140625,0.17241671681404114,0.04688390716910362,-0.15195272862911224
1772883670370550300,5.86555029296875,0.24663683772087097,0.01191187184303999,-0.24572055041790009
1772883670387179300,5.88217919921875,0.3211624026298523,-0.06185010448098183,-0.2779437005519867
1772883670403767800,5.898767822265625,0.36010506749153137,-0.204487144947052,-0.29917123913764954
1772883670420390100,5.91539013671875,0.33796119689941406,-0.3023782968521118,-0.3191770911216736
1772883670436995600,5.93199560546875,0.2580905556678772,-0.31322115659713745,-0.32039880752563477
1772883670453585400,5.94858544921875,0.16554448008537292,-0.2906191349029541,-0.3101668357849121
1772883670470206200,5.965206298828125,0.08903361111879349,-0.23945917189121246,-0.2580905556678772
1772883670486809600,5.9818095703125,0.046731192618608475,-0.13973543047904968,-0.14614951610565186
1772883670503380500,5.99838037109375,0.060475658625364304,0.028099801391363144,0.01817324012517929
1772883670520020200,6.015020263671875,0.09712757170200348,0.19914206862449646,0.20463985204696655
1772883670536625200,6.031625244140625,0.08949175477027893,0.2718350291252136,0.3179553747177124
1772883670553213200,6.048213134765625,0.03329215571284294,0.2252565622329712,0.3246748745441437
1772883670569822500,6.064822509765625,-0.060322944074869156,0.1362229436635971,0.26145032048225403
1772883670586426600,6.081426513671875,-0.17333301901817322,0.09743300825357437,0.182648703455925
1772883670603018500,6.0980185546875,-0.28130343556404114,0.05803219974040985,0.11682797968387604
1772883670619636700,6.11463671875,-0.3462078869342804,0.0074830991216003895,0.11484266817569733
1772883670636243000,6.131242919921875,-0.3911064863204956,0.03894266113638878,0.14385876059532166
1772883670652846800,6.147846923828125,-0.4282165467739105,0.03680463135242462,0.13759739696979523
1772883670669461000,6.1644609375,-0.4990769028663635,0.03481931984424591,0.09636399149894714
1772883670686038800,6.181038818359375,-0.5720753073692322,0.013591751456260681,0.031154127791523933
1772883670702664700,6.197664794921875,-0.5948300361633301,-0.014202617108821869,-0.03848451003432274
1772883670719281400,6.214281494140625,-0.5914703011512756,-0.048716504126787186,-0.1059851199388504
1772883670735883800,6.2308837890625,-0.5623014569282532,-0.04306599870324135,-0.14553864300251007
1772883670752476700,6.2474765625,-0.5100724697113037,-0.042760565876960754,-0.16783522069454193
1772883670769082400,6.264082275390625,-0.4827362596988678,-0.09193521738052368,-0.2252565622329712
1772883670785685000,6.28068505859375,-0.48059824109077454,-0.20693060755729675,-0.365755558013916
1772883670802286300,6.297286376953125,-0.48166725039482117,-0.38026362657546997,-0.5436700582504272
1772883670818914800,6.313914794921875,-0.48426342010498047,-0.4792237877845764,-0.6534730792045593
1772883670835517700,6.330517578125,-0.47448956966400146,-0.4001167416572571,-0.6250678896903992
1772883670852121000,6.34712109375,-0.4155410826206207,-0.14004085958003998,-0.47082439064979553
1772883670868705800,6.363705810546875,-0.2961169183254242,0.1647808998823166,-0.24144448339939117
1772883670885335600,6.38033544921875,-0.1586722433567047,0.3649919927120209,0.0010690141934901476
1772883670901912800,6.396912841796875,-0.03375030308961868,0.33826664090156555,0.2321287989616394
1772883670918546400,6.41354638671875,0.06780604273080826,0.16829337179660797,0.4660901725292206
1772883670935147000,6.43014697265625,0.12476922571659088,-0.07376197725534439,0.6785185933113098
1772883670951751700,6.446751708984375,0.1333213448524475,-0.2587014436721802,0.8258898258209229
1772883670968341500,6.463341552734375,0.10506882518529892,-0.3211624026298523,0.8999572396278381
1772883670984945700,6.479945556640625,0.038637228310108185,-0.2767219543457031,0.9295842051506042
1772883671001565000,6.49656494140625,-0.04535674303770065,-0.2977968156337738,0.8550586104393005
1772883671018176300,6.51317626953125,-0.14187344908714294,-0.39187005162239075,0.6867652535438538
1772883671034774800,6.52977490234375,-0.27779096364974976,-0.45891252160072327,0.48945578932762146
1772883671051368400,6.546368408203125,-0.4314235746860504,-0.4862487316131592,0.2767219543457031
1772883671067958500,6.56295849609375,-0.5607742667198181,-0.531758189201355,0.06276640295982361
1772883671084580600,6.57958056640625,-0.6377432942390442,-0.5111414790153503,-0.09376781433820724
1772883671101185000,6.59618505859375,-0.6316346526145935,-0.3228422701358795,-0.16890424489974976
1772883671117789000,6.612788818359375,-0.49556443095207214,-0.027030786499381065,-0.19226983189582825
1772883671134393900,6.629393798828125,-0.2532036304473877,0.2854267954826355,-0.18448130786418915
1772883671150998800,6.645998779296875,0.020616702735424042,0.4648684561252594,-0.14309518039226532
1772883671167607000,6.66260693359375,0.23854288458824158,0.42668938636779785,-0.08414668589830399
1772883671184217300,6.67921728515625,0.37568211555480957,0.23487769067287445,-0.0630718395113945
1772883671200803000,6.695802978515625,0.44974952936172485,0.012980886735022068,-0.08155050873756409
1772883671217432800,6.712432861328125,0.4922046661376953,-0.14416420459747314,-0.07391469180583954
1772883671234039300,6.729039306640625,0.5004513263702393,-0.23258693516254425,-0.005345070734620094
1772883671250642700,6.745642578125,0.4743368625640869,-0.20601430535316467,0.08155050873756409
1772883671267248000,6.762248046875,0.41401392221450806,-0.17180584371089935,0.09712757170200348
1772883671283853000,6.77885302734375,0.34574973583221436,-0.144622340798378,0.06429356336593628
1772883671300455700,6.79545556640625,0.2938261926174164,-0.04505131021142006,-0.012217304669320583
1772883671317067300,6.8120673828125,0.2814561724662781,0.03481931984424591,-0.13607023656368256
1772883671333668900,6.8286689453125,0.2770273983478546,0.05253441259264946,-0.2542726695537567
1772883671350273800,6.845273681640625,0.26083946228027344,0.025503624230623245,-0.22678372263908386
1772883671366894600,6.86189453125,0.22021691501140594,0.07360926270484924,-0.06643159687519073
1772883671383467000,6.878467041015625,0.19624045491218567,0.11575896292924881,0.08597928285598755
1772883671400088600,6.895088623046875,0.18799377977848053,0.10170906037092209,0.13011430203914642
1772883671416690400,6.9116904296875,0.19456058740615845,0.038026362657547,0.09483683109283447
1772883671433303600,6.928303466796875,0.20845776796340942,0.03649919852614403,0.02535090781748295
1772883671449903900,6.94490380859375,0.20066922903060913,0.05910121276974678,-0.035124752670526505
1772883671466498000,6.961498046875,0.13286319375038147,0.07147123664617538,-0.04581489413976669
1772883671483103200,6.978103271484375,0.06001751124858856,0.0377209298312664,-0.006108652334660292
1772883671499720200,6.99472021484375,-0.004734205547720194,-0.029626963660120964,-0.040164388716220856
1772883671516320000,7.011320068359375,-0.02474004216492176,0.04963280260562897,-0.11881329119205475
1772883671532916500,7.02791650390625,-0.012217304669320583,0.20616702735424042,-0.19120082259178162
1772883671549520400,7.044520263671875,-0.021074850112199783,0.3318525552749634,-0.3127630054950714
1772883671566126600,7.061126708984375,-0.03176499158143997,0.23457226157188416,-0.4737260043621063
1772883671582717700,7.0777177734375,-0.05467243865132332,-0.029932396486401558,-0.5728389024734497
1772883671599336000,7.0943359375,-0.11514809727668762,-0.2177734673023224,-0.5299255847930908
1772883671615940900,7.11094091796875,-0.15760323405265808,-0.16920967400074005,-0.3306308090686798
1772883671632546800,7.127546875,-0.11071932315826416,0.025961773470044136,-0.05696318298578262
1772883671649154300,7.144154296875,0.07757988572120667,0.230448916554451,0.26481008529663086
1772883671665769500,7.16076953125,0.33276882767677307,0.48548516631126404,0.5432119369506836
1772883671682358000,7.17735791015625,0.5853615999221802,0.5926920175552368,0.6829473376274109
1772883671782005000,7.2770048828125,0.5216789245605469,-0.0403171069920063,0.2719877362251282
1772883671798610200,7.293610107421875,0.417679101228714,-0.008857546374201775,0.03573561832308769
1772883671815215000,7.310215087890625,0.3701843321323395,0.08261952549219131,-0.1820378452539444
1772883671831818200,7.326818359375,0.3497203588485718,0.20128010213375092,-0.3306308090686798
1772883671848429600,7.3434296875,0.3344487249851227,0.30512720346450806,-0.4196644127368927
1772883671865030100,7.360030029296875,0.3520110845565796,0.3831652104854584,-0.5079344511032104
1772883671881620500,7.376620361328125,0.40133845806121826,0.41920626163482666,-0.593302845954895
1772883671898241500,7.393241455078125,0.46960264444351196,0.43188172578811646,-0.6192646622657776
1772883671914842000,7.409842041015625,0.5250386595726013,0.40485092997550964,-0.6276640295982361
1772883671931455200,7.426455322265625,0.5580254197120667,0.30634891986846924,-0.5679519772529602
1772883671948055800,7.443055908203125,0.5361869931221008,0.27000242471694946,-0.4349360466003418
1772883671964661500,7.45966162109375,0.4964807331562042,0.2168571650981903,-0.2796235680580139
1772883671981250300,7.476250244140625,0.46639561653137207,0.16264286637306213,-0.14767667651176453
1772883671997870800,7.492870849609375,0.44394633173942566,0.16584990918636322,-0.09178250283002853
1772883672014468000,7.509468017578125,0.4106541574001312,0.1598939746618271,-0.09544769674539566
1772883672031073300,7.5260732421875,0.3640756905078888,0.1088867336511612,-0.1160643994808197
1772883672047672800,7.5426728515625,0.31673362851142883,0.051770828664302826,-0.1310305893421173
1772883672064274000,7.55927392578125,0.26939156651496887,-0.02626720629632473,-0.13439035415649414
1772883672080873200,7.575873291015625,0.22357667982578278,-0.13209961354732513,-0.10262536257505417
1772883672097488600,7.592488525390625,0.1719585657119751,-0.2926044464111328,-0.076052725315094
1772883672114092800,7.6090927734375,0.11362093687057495,-0.44516804814338684,-0.03955352306365967
1772883672130698000,7.625697998046875,0.035582900047302246,-0.4521929919719696,-0.016798794269561768
1772883672147320000,7.642320068359375,-0.032528575509786606,-0.38148534297943115,-0.03741549700498581
1772883672163922400,7.65892236328125,-0.10690141469240189,-0.35323283076286316,-0.07956519722938538
1772883672180527000,7.675527099609375,-0.2002110779285431,-0.33047810196876526,-0.07360926270484924
1772883672197109800,7.69210986328125,-0.29825496673583984,-0.25992316007614136,-0.022449297830462456
1772883672213733400,7.7087333984375,-0.3536909818649292,-0.28619036078453064,-0.02535090781748295
1772883672230347300,7.72534716796875,-0.37491855025291443,-0.42409318685531616,-0.10186178237199783
1772883672246946600,7.741946533203125,-0.4147774875164032,-0.38377609848976135,-0.13545936346054077
1772883672263552000,7.758552001953125,-0.5025894045829773,-0.18509216606616974,-0.17333301901817322
1772883672280140500,7.775140625,-0.5688682794570923,0.018936822190880775,-0.29764407873153687
1772883672296763100,7.79176318359375,-0.608727216720581,0.1915062516927719,-0.47800204157829285
1772883672313367600,7.808367431640625,-0.6600399017333984,0.244804248213768,-0.684474527835846
1772883672329972200,7.82497216796875,-0.6911939978599548,0.25274550914764404,-0.8223773241043091
1772883672346577400,7.841577392578125,-0.6572909951210022,0.3072652220726013,-0.7498371005058289
1772883672363183400,7.858183349609375,-0.5082398653030396,0.43157628178596497,-0.4109596014022827
1772883672379771600,7.874771728515625,-0.3142901659011841,0.5537493228912354,-0.00427605677396059
1772883672396392400,7.891392333984375,-0.16493362188339233,0.6362161636352539,0.3199406862258911
1772883672412993800,7.907993896484375,-0.1062905490398407,0.5435173511505127,0.47678032517433167
1772883672429608000,7.92460791015625,-0.10018189996480942,0.275347501039505,0.4931209683418274
1772883672446207500,7.94120751953125,-0.10949759185314178,-0.028099801391363144,0.494189977645874
1772883672462812700,7.957812744140625,-0.14019356667995453,-0.17241671681404114,0.5145012736320496
1772883672479385900,7.9743857421875,-0.19608774781227112,-0.25763240456581116,0.47189339995384216
1772883672496024300,7.9910244140625,-0.2840523421764374,-0.32681289315223694,0.3116939961910248
1772883672512611000,8.007611083984376,-0.3985895812511444,-0.30115658044815063,0.10491610318422318
1772883672529219300,8.02421923828125,-0.5088507533073425,-0.24572055041790009,-0.11423180252313614
1772883672545824500,8.040824462890624,-0.5662720799446106,-0.14065171778202057,-0.26313021779060364
1772883672562430200,8.05743017578125,-0.5910121202468872,0.006108652334660292,-0.3017674386501312
1772883672579032000,8.074031982421875,-0.5878050923347473,0.13347405195236206,-0.2535090744495392
1772883672595639600,8.0906396484375,-0.5564982295036316,0.17287486791610718,-0.19089539349079132
1772883672612244700,8.10724462890625,-0.5085453391075134,0.14828753471374512,-0.14645494520664215
1772883672628851200,8.123851318359375,-0.45173484086990356,0.062460970133543015,-0.15806138515472412
1772883672645471700,8.1404716796875,-0.4072943925857544,-0.04260785132646561,-0.20234911143779755
1772883672662073600,8.157073486328125,-0.389426589012146,-0.04352414980530739,-0.21792617440223694
1772883672678667800,8.173667724609375,-0.36422839760780334,0.034666601568460464,-0.1892155110836029
1772883672695285000,8.190284912109375,-0.3194825351238251,0.11713340878486633,-0.1333213448524475
1772883672711894000,8.20689404296875,-0.28038713335990906,0.11438451707363129,-0.08017606288194656
1772883672728488400,8.223488525390625,-0.2496911734342575,0.0933096632361412,-0.05054909735918045
1772883672745099000,8.24009912109375,-0.20952677726745605,0.13836097717285156,-0.078343465924263
1772883672761704700,8.25670458984375,-0.1719585657119751,0.1875356286764145,-0.12522737681865692
1772883672778306000,8.27330615234375,-0.1647808998823166,0.1889100819826126,-0.14095716178417206
1772883672794914000,8.2899140625,-0.16523905098438263,0.21288654208183289,-0.13240504264831543
1772883672811515000,8.306514892578125,-0.12339477986097336,0.2831360399723053,-0.11759155988693237
1772883672828129500,8.323129638671874,-0.1111774742603302,0.23625212907791138,-0.128434419631958
1772883672844729300,8.339729248046876,-0.10155634582042694,0.06887505948543549,-0.12400564551353455
1772883672861334300,8.356334228515625,-0.08704829961061478,-0.10842858254909515,-0.0659734457731247
1772883672877931300,8.37293115234375,-0.06520986557006836,-0.12889257073402405,-0.029016099870204926
1772883672894545700,8.389545654296874,-0.023518312722444534,-0.0012217304902151227,-0.06444628536701202
1772883672911145700,8.406145751953124,-0.01466076634824276,0.03848451003432274,-0.1414152979850769
1772883672927758000,8.422758056640625,-0.0064140851609408855,0.024434609338641167,-0.14844025671482086
1772883672944359700,8.439359619140625,0.027947084978222847,0.022449297830462456,-0.021380282938480377
1772883672960965600,8.455965576171875,0.09147707372903824,0.10980302840471268,0.13668109476566315
1772883672977599200,8.47259912109375,0.1417207419872284,0.17699819803237915,0.15745051205158234
1772883672994171600,8.489171630859374,0.15561792254447937,-0.0019853119738399982,0.025503624230623245
1772883673010766300,8.505766357421875,0.10033461451530457,-0.2252565622329712,-0.1843285858631134
1772883673027369200,8.522369140625,-0.00427605677396059,-0.3822489380836487,-0.24694228172302246
1772883673043979300,8.538979248046875,-0.07788532227277756,-0.42638394236564636,-0.11285735666751862
1772883673060581400,8.555581298828125,-0.09147707372903824,-0.31612277030944824,0.07009678333997726
1772883673077178000,8.57217822265625,-0.024892758578062057,-0.096211276948452,0.26419922709465027
1772883673093789700,8.588789794921874,0.14309518039226532,0.19333885610103607,0.47998735308647156
1772883673110396700,8.605396728515625,0.32879820466041565,0.4340197443962097,0.6049093008041382
1772883673127005400,8.62200537109375,0.475253164768219,0.5887213945388794,0.6751587986946106
1772883673143626200,8.638626220703125,0.5612324476242065,0.6143777370452881,0.7266241908073425
1772883673160226000,8.65522607421875,0.5931501388549805,0.3943135142326355,0.7382306456565857
1772883673176813600,8.6718134765625,0.5968153476715088,0.04092797264456749,0.7195992469787598
1772883673193435400,8.688435302734375,0.6010913848876953,-0.2382374405860901,0.6598871946334839
1772883673210036700,8.70503662109375,0.6055201888084412,-0.37339138984680176,0.5732970237731934
1772883673226651100,8.721651123046875,0.5936083197593689,-0.3836233615875244,0.4622722864151001
1772883673243234300,8.738234375,0.5720753073692322,-0.1840231567621231,0.33826664090156555
1772883673259855600,8.754855712890626,0.5068654417991638,-0.05406157299876213,0.23350323736667633
1772883673276452400,8.771452392578125,0.45326200127601624,-0.04489859566092491,0.11239920556545258
1772883673293067000,8.78806689453125,0.408974289894104,-0.06383541971445084,-0.01191187184303999
1772883673309671200,8.804671142578124,0.40424007177352905,0.04153883829712868,-0.13225232064723969
1772883673326276600,8.821276611328125,0.4303545653820038,0.22937989234924316,-0.20845776796340942
1772883673342864600,8.83786474609375,0.47418415546417236,0.4737260043621063,-0.21838432550430298
1772883673359487000,8.854487060546875,0.48029279708862305,0.6885978579521179,-0.16569720208644867
1772883673376103000,8.87110302734375,0.4612032473087311,0.6618725061416626,-0.14019356667995453
1772883673392696300,8.8876962890625,0.4764748811721802,0.39843684434890747,-0.16004669666290283
1772883673409298000,8.9042978515625,0.46211954951286316,0.03985895588994026,-0.1722639948129654
1772883673425918000,8.92091796875,0.4079052805900574,-0.28680121898651123,-0.12400564551353455
1772883673442516700,8.937516845703126,0.33399057388305664,-0.2353358417749405,-0.027488935738801956
1772883673459108400,8.9541083984375,0.2554943859577179,0.03481931984424591,-0.010537425056099892
1772883673475718400,8.970718505859375,0.20326541364192963,0.29306259751319885,-0.11927144229412079
1772883673492315100,8.987315185546874,0.11056660860776901,0.3358231782913208,-0.30253100395202637
1772883673508915200,9.003915283203124,0.02076941914856434,0.251218318939209,-0.3170390725135803
