time,seconds_elapsed,z,y,x
1772883664670860500,0.165860595703125,9.362516403198242,2.9240293502807617,-1.7784653902053833
1772883664687469800,0.1824697265625,9.439684867858887,2.9282166957855225,-1.6301103830337524
1772883664704075800,0.19907568359375,9.45882797241211,2.970689296722412,-1.5152549743652344
1772883664720694000,0.215694091796875,10.208977699279785,3.064009428024292,-1.4039887189865112
1772883664737313500,0.2323134765625,10.816754341125488,3.1316065788269043,-1.220937728881836
1772883664753892000,0.24889208984375,10.597811698913574,3.3577284812927246,-1.0839486122131348
1772883664770511000,0.265510986328125,10.475179672241211,3.486342668533325,-1.1682956218719482
1772883664787111000,0.28211083984375,11.384451866149902,3.204587697982788,-1.2472587823867798
1772883664803721500,0.298721435546875,12.604193687438965,2.936591625213623,-1.3902299404144287
1772883664820309500,0.3153095703125,13.298709869384766,2.9479575157165527,-1.2885349988937378
1772883664836924400,0.33192431640625,13.401601791381836,3.1764719486236572,-0.981655478477478
1772883664853537000,0.348537109375,12.966107368469238,3.5748770236968994,-0.4977070987224579
1772883664870141400,0.365141357421875,12.264412879943848,3.9870407581329346,0.21714866161346436
1772883664886743300,0.381743408203125,11.980862617492676,4.030709743499756,0.9224331378936768
1772883664903357200,0.398357177734375,11.649456977844238,3.7226338386535645,1.31365966796875
1772883664919940000,0.414940185546875,11.401800155639648,3.2446675300598145,1.5128620862960815
1772883664936561400,0.4315615234375,11.067402839660645,2.6626133918762207,1.409970760345459
1772883664953163500,0.44816357421875,10.363314628601074,2.111665964126587,1.1419745683670044
1772883664969773600,0.464773681640625,9.562317848205566,1.8095721006393433,0.7519445419311523
1772883664986372000,0.4813720703125,9.105886459350586,1.6193426847457886,0.600000262260437
1772883665002981000,0.497981201171875,9.098708152770996,1.5463616847991943,0.7429714202880859
1772883665019567600,0.514567626953125,9.008976936340332,1.4877375364303589,0.8099704384803772
1772883665036188700,0.531188720703125,8.81814956665039,1.485344648361206,0.8398807644844055
1772883665052796400,0.54779638671875,8.546564102172852,1.4572290182113647,0.989432156085968
1772883665069402000,0.564402099609375,8.36411190032959,1.5260226726531982,1.1012966632843018
1772883665086004500,0.58100439453125,8.289934158325195,1.7150555849075317,1.2795618772506714
1772883665102612000,0.597612060546875,8.26660442352295,1.9770697355270386,1.4207384586334229
1772883665119203300,0.614203369140625,8.00638484954834,2.3706889152526855,1.5254244804382324
1772883665135803400,0.630803466796875,7.574480056762695,2.7188446521759033,1.6163517236709595
1772883665152413200,0.6474130859375,7.296912670135498,2.950948476791382,1.557727575302124
1772883665169019000,0.664018798828125,7.379465103149414,3.129213809967041,1.5200406312942505
1772883665185625900,0.6806259765625,7.912466049194336,3.2745778560638428,1.4464613199234009
1772883665202228000,0.69722802734375,8.430512428283691,3.387040376663208,1.272383451461792
1772883665218821400,0.7138212890625,8.714659690856934,3.421736478805542,0.9218349456787109
1772883665235440600,0.730440673828125,8.642875671386719,3.5294134616851807,0.5066801905632019
1772883665252043800,0.747043701171875,8.566305160522461,3.7220356464385986,0.24586252868175507
1772883665268672500,0.763672607421875,8.400003433227539,3.8602211475372314,0.09930214285850525
1772883665285268200,0.780268310546875,8.301898002624512,3.9978084564208984,0.12023933976888657
1772883665301871900,0.796871826171875,8.338388442993164,4.088735580444336,0.17766708135604858
1772883665318445300,0.8134453125,8.274978637695312,4.164707660675049,0.18364913761615753
1772883665335081000,0.8300810546875,8.183453559875488,4.135993957519531,-0.0023928226437419653
1772883665351677200,0.84667724609375,8.044071197509766,4.140181541442871,-0.054436713457107544
1772883665368291600,0.86329150390625,7.880163192749023,4.167698860168457,-0.1585244983434677
1772883665384882000,0.8798818359375,7.534998416900635,4.202394962310791,-0.18963119387626648
1772883665401505300,0.89650537109375,7.246663570404053,4.29451847076416,-0.11066804826259613
1772883665418104800,0.913104736328125,7.0097737312316895,4.467998027801514,0.01136590726673603
1772883665434722000,0.92972216796875,6.777669906616211,4.575675010681152,-0.02512463741004467
1772883665451319800,0.94631982421875,6.690331935882568,4.576273441314697,-0.18723836541175842
1772883665467921400,0.96292138671875,6.7621169090271,4.493122577667236,-0.46061834692955017
1772883665484509700,0.979509765625,7.073183536529541,4.444668292999268,-0.5635097622871399
1772883665501134300,0.99613427734375,7.449455261230469,4.511667251586914,-0.6556333899497986
1772883665517724000,1.012723876953125,7.792825222015381,4.540380954742432,-0.7579265832901001
1772883665534346500,1.029346435546875,7.828119277954102,4.71744966506958,-0.7328019142150879
1772883665550947600,1.045947509765625,7.987242221832275,4.951946258544922,-0.5647061467170715
1772883665567556000,1.06255615234375,8.117650985717773,4.947160720825195,-0.388235479593277
1772883665584144400,1.079144287109375,8.46461009979248,4.8777689933776855,-0.21415762603282928
1772883665600762400,1.095762451171875,9.062217712402344,4.90827751159668,-0.2315055876970291
1772883665617353700,1.112353759765625,9.409774780273438,4.951348304748535,-0.31465616822242737
1772883665633957000,1.12895703125,9.501300811767578,4.947160720825195,-0.25304099917411804
1772883665650566400,1.14556640625,9.668798446655273,5.018945693969727,-0.04247260093688965
1772883665667169800,1.162169677734375,10.04985523223877,5.019543647766113,0.39541393518447876
1772883665683775500,1.178775390625,10.874780654907227,4.809573650360107,0.8291130661964417
1772883665700383500,1.195383544921875,11.867203712463379,4.263411521911621,1.0199406147003174
1772883665716974800,1.211974853515625,12.220743179321289,3.558725595474243,1.0606186389923096
1772883665733590800,1.2285908203125,11.907283782958984,2.895913600921631,0.9619147181510925
1772883665750213600,1.245213623046875,11.245668411254883,2.5334010124206543,0.48454657196998596
1772883665766813000,1.26181298828125,10.642078399658203,2.3736801147460938,-0.07238288223743439
1772883665783404300,1.278404296875,10.066604614257812,2.3324038982391357,-0.45224347710609436
1772883665800012000,1.295011962890625,9.533005714416504,2.3431715965270996,-0.7262216806411743
1772883665816613600,1.311613525390625,9.05563735961914,2.496910333633423,-0.8374879360198975
1772883665833235700,1.328235595703125,8.669795036315918,2.6602206230163574,-0.8769695162773132
1772883665849839400,1.34483935546875,8.523832321166992,2.764308452606201,-0.9427721500396729
1772883665866443000,1.361443115234375,8.520243644714355,2.772084951400757,-0.7178468108177185
1772883665883037000,1.378036865234375,8.520841598510742,2.8414769172668457,-0.4205385744571686
1772883665899660500,1.39466064453125,8.823533058166504,2.885145902633667,-0.06819544732570648
1772883665916253200,1.411253173828125,9.150752067565918,2.8725836277008057,0.16450655460357666
1772883665932865500,1.427865478515625,9.347561836242676,2.8791637420654297,0.2111666053533554
1772883665949469400,1.444469482421875,9.54915714263916,2.80977201461792,0.137587308883667
1772883665966073600,1.461073486328125,9.78126049041748,2.6177480220794678,-0.013160524889826775
1772883665982670800,1.4776708984375,10.047462463378906,2.406581401824951,-0.1740778535604477
1772883665999285800,1.49428564453125,10.039685249328613,2.273181438446045,-0.26620152592658997
1772883666015862300,1.5108623046875,9.729216575622559,2.2737796306610107,-0.21176479756832123
1772883666032497400,1.527497314453125,9.364311218261719,2.421536445617676,-0.022133609279990196
1772883666049099500,1.544099609375,9.008976936340332,2.5501506328582764,0.2105683982372284
1772883666065723400,1.560723388671875,8.740981101989746,2.6219353675842285,0.39421752095222473
1772883666082311700,1.577311767578125,8.468199729919434,2.6943182945251465,0.5688936114311218
1772883666098915300,1.593915283203125,8.26660442352295,2.7631118297576904,0.6897311210632324
1772883666115515100,1.61051513671875,8.123034477233887,2.812762975692749,0.8297112584114075
1772883666132113700,1.62711376953125,7.930412292480469,2.8498518466949463,0.7447660565376282
1772883666148718800,1.64371875,7.688737392425537,2.9479575157165527,0.737587571144104
1772883666165321500,1.660321533203125,7.5086774826049805,3.145963668823242,0.8165507316589355
1772883666181931800,1.676931884765625,7.630113124847412,3.3003005981445312,0.8123632669448853
1772883666198535700,1.69353564453125,7.805387496948242,3.4031920433044434,0.8117650747299194
1772883666215131400,1.71013134765625,7.93579626083374,3.548556089401245,0.7166503667831421
1772883666231743500,1.726743408203125,8.300702095031738,3.720839262008667,0.649053156375885
1772883666248366300,1.743366455078125,8.58066177368164,3.8668015003204346,0.7489534616470337
1772883666264966700,1.759966552734375,8.69372272491455,3.9637107849121094,0.7345965504646301
1772883666281573400,1.776573486328125,8.84088134765625,3.9804604053497314,0.6047859191894531
1772883666298176300,1.79317626953125,9.061020851135254,3.964308977127075,0.5700899958610535
1772883666314749700,1.809749755859375,9.539586067199707,3.992424488067627,0.6340979933738708
1772883666331388700,1.826388671875,10.066604614257812,3.9595232009887695,0.6789634227752686
1772883666347991300,1.8429912109375,10.604392051696777,3.8745779991149902,0.6945167779922485
1772883666364597200,1.85959716796875,11.026126861572266,3.7423746585845947,0.4325026869773865
1772883666381187800,1.876187744140625,11.266605377197266,3.6646077632904053,0.33499518036842346
1772883666397830400,1.892830322265625,11.047661781311035,3.6466617584228516,0.4749752879142761
1772883666414397400,1.9093974609375,10.830513954162598,3.5850465297698975,0.7100701332092285
1772883666431017200,1.926017333984375,10.829317092895508,3.5336008071899414,1.144965648651123
1772883666447606800,1.942606689453125,10.782058715820312,3.4277184009552,1.709073543548584
1772883666464227600,1.9592275390625,10.72702407836914,3.1663026809692383,1.994417667388916
1772883666480839200,1.975839111328125,10.378270149230957,2.630908489227295,2.0398812294006348
1772883666497424400,1.99242431640625,9.995418548583984,2.087737798690796,1.8849459886550903
1772883666514013000,2.009012939453125,9.723833084106445,1.6845471858978271,1.6253247261047363
1772883666530651400,2.0256513671875,9.68375301361084,1.451246976852417,1.4470595121383667
1772883666547253000,2.0422529296875,9.924830436706543,1.3112667798995972,1.3489537239074707
1772883666563858000,2.05885791015625,10.050453186035156,1.1377872228622437,1.0408778190612793
1772883666580448300,2.0754482421875,9.640682220458984,0.9780662655830383,0.7740781307220459
1772883666597084000,2.092083984375,9.251250267028809,1.0085747241973877,0.5994020700454712
1772883666613673700,2.108673828125,9.138788223266602,1.155135154724121,0.6681957244873047
1772883666630266400,2.125266357421875,9.269794464111328,1.3986048698425293,0.8799605369567871
1772883666646869800,2.141869873046875,9.006584167480469,1.7575281858444214,1.1754741668701172
1772883666663463200,2.158463134765625,8.737990379333496,2.1062822341918945,1.4380863904953003
1772883666680081200,2.1750810546875,8.71226692199707,2.3186452388763428,1.7647067308425903
1772883666696685300,2.191685302734375,8.955737113952637,2.444268226623535,1.9800606966018677
1772883666713283000,2.208282958984375,9.313464164733887,2.4951157569885254,2.035693883895874
1772883666729913600,2.22491357421875,9.542576789855957,2.4610180854797363,1.8424733877182007
1772883666746515200,2.24151513671875,9.575477600097656,2.3736801147460938,1.4781662225723267
1772883666763118800,2.258118896484375,9.301499366760254,2.3018953800201416,1.072582721710205
1772883666779709400,2.27470947265625,9.083752632141113,2.321636199951172,0.7345965504646301
1772883666796328000,2.291327880859375,8.916853904724121,2.404188632965088,0.3439682424068451
1772883666812922000,2.307922119140625,8.74038314819336,2.4873390197753906,-0.1136590763926506
1772883666829533700,2.32453369140625,8.501100540161133,2.6021945476531982,-0.4414757788181305
1772883666846132700,2.3411328125,8.270791053771973,2.6524438858032227,-0.4588237404823303
1772883666862750200,2.357750244140625,8.26660442352295,2.8725836277008057,-0.4570291340351105
1772883666879357200,2.374357177734375,8.48016357421875,3.012563705444336,-0.31405797600746155
1772883666895929600,2.3909296875,8.756534576416016,3.092125177383423,-0.2763710021972656
1772883666912554200,2.40755419921875,8.577073097229004,3.1579277515411377,-0.39481574296951294
1772883666929170000,2.424169921875,8.161319732666016,3.322434186935425,-0.5730810165405273
1772883666945774800,2.44077490234375,7.7461652755737305,3.4911282062530518,-0.7082754969596863
1772883666962379500,2.457379638671875,7.331608772277832,3.6257245540618896,-0.7381857633590698
1772883666978970400,2.473970458984375,7.0648088455200195,3.824328899383545,-0.768694281578064
1772883666995613200,2.49061328125,7.315456867218018,3.9182469844818115,-0.865005373954773
1772883667012216000,2.507216064453125,7.6666035652160645,3.803391695022583,-0.9254241585731506
1772883667028800000,2.523800048828125,7.931010723114014,3.720839262008667,-1.0564311742782593
1772883667045406500,2.540406494140625,8.263014793395996,3.5958142280578613,-1.0929217338562012
1772883667062011400,2.557011474609375,8.773882865905762,3.386442184448242,-1.1353943347930908
1772883667078604800,2.573604736328125,9.525827407836914,3.088535785675049,-1.170688509941101
1772883667095219000,2.590218994140625,10.487143516540527,3.033500909805298,-1.3914263248443604
1772883667111799600,2.606799560546875,11.054242134094238,3.150151014328003,-1.451246976852417
1772883667128417500,2.62341748046875,11.219944953918457,3.3134610652923584,-1.2789636850357056
1772883667145023000,2.64002294921875,11.306685447692871,3.4067811965942383,-0.867398202419281
1772883667161628700,2.656628662109375,11.45803165435791,3.4791641235351562,-0.15972091257572174
1772883667178235100,2.673235107421875,12.350554466247559,3.518047571182251,0.3326023519039154
1772883667194836200,2.689836181640625,13.534402847290039,2.846860647201538,0.8757730722427368
1772883667211443500,2.706443359375,14.286347389221191,1.8813568353652954,1.1467602252960205
1772883667228063700,2.723063720703125,14.145769119262695,1.1024930477142334,0.8165507316589355
1772883667244670700,2.739670654296875,13.123435974121094,0.5886343717575073,0.268594354391098
1772883667261255700,2.756255615234375,11.583654403686523,0.5629115104675293,-0.3445664644241333
1772883667277864400,2.772864501953125,10.125228881835938,0.8620143532752991,-0.8027920126914978
1772883667294486300,2.789486328125,8.874979019165039,1.1509476900100708,-0.9373882412910461
1772883667311071000,2.806071044921875,8.063812255859375,1.5487544536590576,-0.8865407705307007
1772883667327681000,2.822680908203125,7.987242221832275,1.8011972904205322,-0.8554341197013855
1772883667344280800,2.83928076171875,8.37966537475586,1.832902193069458,-0.7573283910751343
1772883667360901400,2.8559013671875,8.83370304107666,1.9280169010162354,-0.6299105882644653
1772883667377510000,2.872510009765625,9.185447692871094,1.9100706577301025,-0.30209386348724365
1772883667394110500,2.8891103515625,9.578469276428223,1.950150489807129,-0.022133609279990196
1772883667410719200,2.90571923828125,9.893125534057617,1.828116536140442,0.1094716340303421
1772883667427332900,2.922332763671875,9.89551830291748,1.6139588356018066,-0.06939185410737991
1772883667443921700,2.938921630859375,9.735198974609375,1.3621143102645874,-0.4624129831790924
1772883667460527900,2.95552783203125,9.392427444458008,1.1413763761520386,-0.8159525394439697
1772883667477114400,2.9721142578125,8.970093727111816,1.1623135805130005,-1.0091729164123535
1772883667493756200,2.988756103515625,8.639883995056152,1.3884353637695312,-1.058824062347412
1772883667510351000,3.00535107421875,8.470592498779297,1.5481562614440918,-0.9176474809646606
1772883667526951000,3.021950927734375,8.196614265441895,1.6821542978286743,-0.6759724020957947
1772883667543543300,3.038543212890625,7.974679470062256,1.8735800981521606,-0.381655216217041
1772883667560159200,3.0551591796875,8.084151268005371,2.0159530639648438,-0.08434699475765228
1772883667576761600,3.07176171875,8.315058708190918,2.0404794216156006,0.14835500717163086
1772883667593372400,3.088372314453125,8.310273170471191,2.026122570037842,0.17228323221206665
1772883667609963000,3.104962890625,8.322834968566895,2.084148406982422,0.06759724020957947
1772883667626569200,3.1215693359375,8.48853874206543,2.1445672512054443,-0.08614161610603333
1772883667643176400,3.138176513671875,8.538787841796875,2.241476535797119,-0.16689938306808472
1772883667659780400,3.1547802734375,8.568697929382324,2.4335005283355713,-0.18963119387626648
1772883667676376300,3.171376220703125,8.694320678710938,2.6255247592926025,-0.11724831163883209
1772883667692991000,3.187990966796875,8.877371788024902,2.8660032749176025,0.046061836183071136
1772883667709613300,3.20461328125,9.166903495788574,3.0729825496673584,0.2566302418708801
1772883667726214400,3.22121435546875,9.468399047851562,3.187838077545166,0.6382854580879211
1772883667742819800,3.23781982421875,9.683155059814453,3.279961585998535,0.8099704384803772
1772883667759425000,3.254425048828125,10.078569412231445,3.1920254230499268,0.9409775137901306
1772883667776027000,3.27102685546875,10.393823623657227,2.9515466690063477,0.9565308690071106
1772883667792635100,3.28763525390625,10.620543479919434,2.788236618041992,0.6957131624221802
1772883667809236700,3.30423681640625,10.634900093078613,2.671586513519287,0.35054850578308105
1772883667825877200,3.320877197265625,10.51346492767334,2.616551637649536,-0.06041877344250679
1772883667842450400,3.337450439453125,10.582856178283691,2.6153552532196045,-0.44805604219436646
1772883667859031300,3.35403125,10.447063446044922,2.6392834186553955,-0.6580262184143066
1772883667875649000,3.37064892578125,10.29153060913086,2.710469961166382,-0.771087110042572
1772883667892251400,3.38725146484375,10.329814910888672,2.720041036605835,-0.7184450030326843
1772883667908840000,3.40383984375,10.40040397644043,2.595614433288574,-0.6101697683334351
1772883667925464800,3.42046484375,10.50508975982666,2.4089741706848145,-0.49710890650749207
1772883667942067200,3.437067138671875,10.832906723022461,2.038684844970703,-0.4061816334724426
1772883667958672100,3.453672119140625,10.9633150100708,1.724626898765564,-0.4570291340351105
1772883667975284200,3.4702841796875,11.166705131530762,1.3722838163375854,-0.37447673082351685
1772883667991882200,3.48688232421875,10.879566192626953,1.1670992374420166,-0.24526432156562805
1772883668008487700,3.50348779296875,10.344770431518555,1.0947163105010986,-0.2763710021972656
1772883668025109500,3.520109619140625,9.847063064575195,1.0372886657714844,-0.4127618968486786
1772883668041711600,3.536711669921875,9.305686950683594,1.0606186389923096,-0.45224347710609436
1772883668058316000,3.55331591796875,8.797212600708008,1.164108157157898,-0.3008974492549896
1772883668074922000,3.569921875,8.36411190032959,1.3968101739883423,-0.07178468257188797
1772883668091523600,3.586523681640625,8.065607070922852,1.568495273590088,0.2183450609445572
1772883668108118500,3.603118408203125,7.878966808319092,1.674377679824829,0.46899324655532837
1772883668124723000,3.619722900390625,7.741379261016846,1.6241283416748047,0.5647061467170715
1772883668141328100,3.636328125,7.829315662384033,1.4871392250061035,0.4486542344093323
1772883668157933300,3.652933349609375,7.906484127044678,1.3938192129135132,0.2512463629245758
1772883668174535000,3.669534912109375,7.9381890296936035,1.3968101739883423,-0.05024927482008934
1772883668191143200,3.68614306640625,7.791628837585449,1.459621787071228,-0.32123643159866333
1772883668207763000,3.702762939453125,7.546962738037109,1.6360924243927002,-0.6011967062950134
1772883668224370400,3.719370361328125,7.406982421875,1.8711873292922974,-0.8374879360198975
1772883668240937500,3.7359375,7.613961696624756,2.1026928424835205,-0.784247636795044
1772883668257577000,3.752576904296875,8.090133666992188,2.2743778228759766,-0.6520441770553589
1772883668274182100,3.76918212890625,8.563912391662598,2.2881367206573486,-0.5778666734695435
1772883668290787300,3.785787353515625,9.031708717346191,2.3324038982391357,-0.656829833984375
1772883668307395000,3.80239501953125,9.462417602539062,2.276172637939453,-0.8177471160888672
1772883668323995600,3.81899560546875,9.725627899169922,2.1619153022766113,-1.144965648651123
1772883668340603000,3.835602783203125,9.859027862548828,2.084746837615967,-1.4620146751403809
1772883668357207600,3.85220751953125,9.977472305297852,2.1062822341918945,-1.5822539329528809
1772883668373796600,3.868796630859375,10.009177207946777,2.2205393314361572,-1.490728497505188
1772883668390442000,3.88544189453125,10.04447078704834,2.3886351585388184,-1.4895321130752563
1772883668407016400,3.902016357421875,10.363913536071777,2.4113669395446777,-1.5726827383041382
1772883668423635200,3.91863525390625,10.77129077911377,2.35872483253479,-1.622931957244873
1772883668440217300,3.93521728515625,11.264212608337402,2.3401806354522705,-1.6259230375289917
1772883668456829700,3.95182958984375,11.5914306640625,2.266601324081421,-1.5565310716629028
1772883668473435600,3.968435546875,11.84447193145752,2.138585329055786,-1.3435698747634888
1772883668490049000,3.985049072265625,12.183056831359863,2.2091734409332275,-1.3262219429016113
1772883668506653700,4.00165380859375,12.546765327453613,2.4424736499786377,-1.3214362859725952
1772883668523258600,4.018258544921875,12.68315601348877,2.4837498664855957,-0.8817551732063293
1772883668539864000,4.034864013671875,12.681960105895996,2.7044878005981445,-0.3924229145050049
1772883668556468700,4.05146875,12.41994571685791,2.8079774379730225,0.07357929646968842
1772883668573070600,4.068070556640625,11.94915771484375,2.7385854721069336,0.3439682424068451
1772883668589662200,4.084662109375,11.579466819763184,2.571686029434204,0.363709032535553
1772883668606270500,4.1012705078125,11.467602729797363,2.1589243412017822,0.36610186100006104
1772883668622875600,4.117875732421875,11.766705513000488,1.8113667964935303,0.5246263742446899
1772883668639480800,4.134480712890625,11.73559856414795,1.2029916048049927,0.5868397355079651
1772883668656085200,4.151085205078125,11.135598182678223,0.6915257573127747,0.2949153780937195
1772883668672678700,4.1676787109375,10.281360626220703,0.4181457459926605,-0.15194423496723175
1772883668689313000,4.18431298828125,9.34875774383545,0.3002992272377014,-0.46779683232307434
1772883668705918000,4.20091796875,8.309675216674805,0.2757728099822998,-0.6107679605484009
1772883668722516500,4.2175166015625,7.392027378082275,0.43968117237091064,-0.7525427341461182
1772883668739108000,4.234108154296875,6.783053874969482,0.7716853022575378,-0.6460621356964111
1772883668755729700,4.250729736328125,6.591030120849609,1.155733346939087,-0.4175475537776947
1772883668772312300,4.267312255859375,6.674180507659912,1.4075778722763062,-0.11485548317432404
1772883668788940000,4.28393994140625,6.949953556060791,1.557727575302124,0.04247260093688965
1772883668805540900,4.300540771484375,7.222136974334717,1.6031911373138428,0.07956135272979736
1772883668822154200,4.317154296875,7.475177764892578,1.643869161605835,0.11665010452270508
1772883668838760700,4.3337607421875,8.25703239440918,1.7682958841323853,0.008374879136681557
1772883668855360500,4.350360595703125,8.94137954711914,1.705484390258789,-0.16809579730033875
1772883668871993600,4.36699365234375,9.251849174499512,1.591825246810913,-0.5150550603866577
1772883668888570600,4.383570556640625,9.181859016418457,1.430309772491455,-0.7836494445800781
1772883668905172000,4.400171875,8.93420124053955,1.6139588356018066,-0.7381857633590698
1772883668921780200,4.4167802734375,8.62014389038086,1.9046868085861206,-0.3852444589138031
1772883668938375400,4.43337548828125,8.516056060791016,2.1607189178466797,-0.2153540402650833
1772883668954990600,4.449990478515625,8.663214683532715,2.252244234085083,-0.10049854964017868
1772883668971576300,4.466576416015625,8.943174362182617,2.1589243412017822,-0.05503492057323456
1772883668988201200,4.483201171875,9.110671997070312,1.9441684484481812,0.10049854964017868
1772883669004801800,4.4998017578125,9.083154678344727,1.9046868085861206,0.1908276081085205
1772883669021389600,4.5163896484375,8.885746955871582,1.9980069398880005,0.22133609652519226
1772883669038002000,4.533001953125,8.590831756591797,2.1104695796966553,0.11425728350877762
1772883669054621000,4.549620849609375,8.528617858886719,2.2791635990142822,-0.1136590763926506
1772883669071209200,4.566209228515625,8.58484935760498,2.290529489517212,-0.24825534224510193
1772883669087814100,4.582814208984375,8.820542335510254,2.480160713195801,-0.28175488114356995
1772883669104426000,4.599426025390625,9.123234748840332,2.7218358516693115,-0.1663011759519577
1772883669121025000,4.61602490234375,9.334999084472656,2.9383862018585205,-0.06580262631177902
1772883669137633000,4.632633056640625,9.494720458984375,3.1028928756713867,-0.046061836183071136
1772883669154238000,4.649238037109375,9.553942680358887,3.2237303256988525,-0.12681959569454193
1772883669170829300,4.665829345703125,9.596415519714355,3.2626137733459473,-0.09810572862625122
1772883669187465500,4.682465576171875,9.970891952514648,3.232105255126953,-0.02392822690308094
1772883669204064000,4.69906396484375,10.61097240447998,3.0562326908111572,0.08075776696205139
1772883669220674600,4.715674560546875,11.112866401672363,2.8187451362609863,-0.02871387079358101
1772883669237261000,4.732260986328125,11.325827598571777,2.6075785160064697,-0.2847459018230438
1772883669253898000,4.74889794921875,11.185847282409668,2.536990165710449,-0.6005984544754028
1772883669270488000,4.765488037109375,10.797014236450195,2.5537400245666504,-0.8231309652328491
1772883669287092200,4.78209228515625,10.461421012878418,2.7810580730438232,-0.9487541913986206
1772883669303693300,4.798693359375,10.206584930419922,2.864208698272705,-0.9367900490760803
1772883669320306200,4.81530615234375,9.955936431884766,2.68953275680542,-0.9559326171875
1772883669336891000,4.831890869140625,10.080962181091309,2.39401912689209,-0.9397810697555542
1772883669353503200,4.848503173828125,10.127023696899414,2.053041934967041,-0.7465606927871704
1772883669370109200,4.865109130859375,10.395618438720703,1.801795482635498,-0.6969096064567566
1772883669386722600,4.88172265625,10.581660270690918,1.5361921787261963,-0.7525427341461182
1772883669403307500,4.8983076171875,10.561321258544922,1.322034478187561,-0.8644071817398071
1772883669419936500,4.9149365234375,10.465009689331055,1.1383854150772095,-0.7932206988334656
1772883669436521700,4.931521728515625,10.515857696533203,1.0606186389923096,-0.5551348328590393
1772883669453142300,4.948142333984375,10.323235511779785,1.195214867591858,-0.3086741268634796
1772883669469748700,4.964748779296875,9.92243766784668,1.4518451690673828,-0.09451649338006973
1772883669486354000,4.98135400390625,9.677172660827637,1.6378871202468872,0.25304099917411804
1772883669502953200,4.997953125,9.438488960266113,1.7473586797714233,0.6137589812278748
1772883669519567000,5.014567138671875,9.347561836242676,1.8113667964935303,0.8297112584114075
1772883669536141600,5.0311416015625,9.323633193969727,1.820937991142273,0.8679963946342468
1772883669552762400,5.047762451171875,9.30748176574707,1.6253247261047363,0.7088736891746521
1772883669569361700,5.064361572265625,9.356534957885742,1.4279168844223022,0.33439695835113525
1772883669585969700,5.0809697265625,9.257830619812012,1.275374412536621,0.1423729509115219
1772883669602572300,5.097572265625,8.999405860900879,1.2586246728897095,0.09571290761232376
1772883669619180500,5.1141806640625,8.708678245544434,1.4141582250595093,0.046061836183071136
1772883669635785200,5.13078515625,8.35573673248291,1.5690934658050537,-0.08015955984592438
1772883669652375300,5.147375244140625,7.8693952560424805,1.6701902151107788,-0.24885354936122894
1772883669668993000,5.163992919921875,7.35314416885376,1.83828604221344,-0.40259242057800293
1772883669685617700,5.18061767578125,7.038487911224365,2.0033907890319824,-0.48514479398727417
1772883669702215700,5.197215576171875,7.0654072761535645,2.132004976272583,-0.4462614357471466
1772883669718828000,5.213828125,7.380661487579346,2.2205393314361572,-0.2512463629245758
1772883669735430000,5.230429931640625,7.754539966583252,2.255833625793457,-0.028115665540099144
1772883669752008200,5.24700830078125,8.093722343444824,2.3162522315979004,0.05623133108019829
1772883669768635400,5.263635498046875,8.255836486816406,2.375474691390991,0.1178465187549591
1772883669785248500,5.28024853515625,8.405985832214355,2.492722988128662,0.0029910283628851175
1772883669801834500,5.29683447265625,8.536993026733398,2.572284460067749,-0.2027917206287384
1772883669818457900,5.313457763671875,8.711668968200684,2.6422743797302246,-0.3367897868156433
1772883669835076600,5.33007666015625,8.877371788024902,2.7116663455963135,-0.4043870270252228
1772883669851648000,5.34664794921875,9.157332420349121,2.815753936767578,-0.47198426723480225
1772883669868253400,5.36325341796875,9.515657424926758,2.82951283454895,-0.5030909776687622
1772883669884875300,5.379875244140625,10.080962181091309,2.788236618041992,-0.5778666734695435
1772883669901475800,5.396475830078125,10.820941925048828,2.6009981632232666,-0.6789634227752686
1772883669918089200,5.413089111328125,11.469995498657227,2.4119651317596436,-0.760917603969574
1772883669934675200,5.42967529296875,12.095120429992676,2.2372891902923584,-0.7513462901115417
1772883669951289000,5.4462890625,12.521042823791504,2.231905221939087,-0.7489534616470337
1772883669967907000,5.462906982421875,12.344572067260742,2.4879374504089355,-0.6550351977348328
1772883669984509200,5.47950927734375,11.980862617492676,2.7517459392547607,-0.6275177597999573
1772883670001113300,5.49611328125,11.829517364501953,2.913261651992798,-0.6634100675582886
1772883670017713200,5.512713134765625,11.759527206420898,2.8115665912628174,-0.6448656916618347
1772883670034305800,5.529305908203125,11.919845581054688,2.575275421142578,-0.21714866161346436
1772883670050922800,5.5459228515625,12.679567337036133,2.349153518676758,0.37507495284080505
1772883670067517000,5.562516845703125,13.369297981262207,1.9226330518722534,0.7794619798660278
1772883670084122000,5.5791220703125,13.603795051574707,1.3992030620574951,0.7262216806411743
1772883670100725500,5.5957255859375,13.432109832763672,0.9846464991569519,0.3080759048461914
1772883670117334300,5.612334228515625,12.90628719329834,0.5796613097190857,-0.07956135272979736
1772883670133937700,5.628937744140625,12.111271858215332,0.28594231605529785,-0.2638086974620819
1772883670150542300,5.645542236328125,11.439486503601074,0.13040883839130402,-0.275174617767334
1772883670167151400,5.6621513671875,10.476375579833984,0.017946170642971992,-0.10348957777023315
1772883670183766500,5.6787666015625,9.448657989501953,0.21176479756832123,-0.029312077909708023
1772883670200364500,5.695364501953125,8.602197647094727,0.47976094484329224,0.025722842663526535
1772883670216983300,5.7119833984375,8.018348693847656,0.5252245664596558,0.13938191533088684
1772883670233554200,5.72855419921875,7.475177764892578,0.4695914387702942,0.3858426511287689
1772883670250186200,5.745186279296875,6.961917400360107,0.5587241053581238,0.4899304509162903
1772883670266758400,5.76175830078125,6.516852378845215,0.8219345808029175,0.503689169883728
1772883670283397400,5.7783974609375,6.2327046394348145,1.1497513055801392,0.37866419553756714
1772883670300006000,5.795005859375,6.1675004959106445,1.4530415534973145,0.09930214285850525
1772883670316607000,5.81160693359375,6.265007972717285,1.7629120349884033,-0.22911277413368225
1772883670333195500,5.828195556640625,6.573681831359863,1.9992033243179321,-0.5880361795425415
1772883670349816800,5.84481689453125,7.086344242095947,2.121835470199585,-0.8865407705307007
1772883670366416600,5.861416748046875,7.63310432434082,2.276770830154419,-0.9696913957595825
1772883670383033000,5.878033203125,7.987840175628662,2.5334010124206543,-0.8787640929222107
1772883670399628500,5.894628662109375,8.349156379699707,2.7834508419036865,-0.5395814776420593
1772883670416241400,5.911241455078125,8.755337715148926,2.9563324451446533,-0.08135596662759781
1772883670432814000,5.92781396484375,9.209376335144043,3.0975089073181152,0.2470589429140091
1772883670449444000,5.944444091796875,9.64367389678955,3.178266763687134,0.2835494875907898
1772883670466056400,5.961056396484375,10.043274879455566,3.0723843574523926,0.3188436031341553
1772883670482635300,5.97763525390625,10.30469036102295,2.9168508052825928,0.37806597352027893
1772883670499254500,5.994254638671875,10.328021049499512,2.912663459777832,0.30628129839897156
1772883670515876400,6.01087646484375,9.987043380737305,3.008974552154541,0.380458801984787
1772883670532456200,6.027456298828125,9.302696228027344,3.297309637069702,0.4773681163787842
1772883670549061000,6.04406103515625,8.609375953674316,3.5575289726257324,0.5072783827781677
1772883670565670000,6.060669921875,8.295317649841309,3.7118661403656006,0.5581258535385132
1772883670582274000,6.077274169921875,8.217551231384277,3.782454490661621,0.5635097622871399
1772883670598876400,6.09387646484375,8.392227172851562,3.857828378677368,0.4055834412574768
1772883670615487700,6.11048779296875,8.80798053741455,3.8297126293182373,0.2548356056213379
1772883670632076800,6.127076904296875,8.991629600524902,3.7501513957977295,0.27696922421455383
1772883670648694300,6.1436943359375,9.119645118713379,3.8470606803894043,0.3535395562648773
1772883670665314800,6.160314697265625,9.227322578430176,3.9864425659179688,0.4211367964744568
1772883670681912300,6.176912353515625,9.32183837890625,3.9978084564208984,0.3008974492549896
1772883670698529000,6.193529052734375,9.477372169494629,4.039682865142822,0.07058826833963394
1772883670715131400,6.21013134765625,9.731609344482422,3.9810585975646973,-0.06999006122350693
1772883670731721700,6.2267216796875,9.940383911132812,3.9900317192077637,-0.2715853750705719
1772883670748335000,6.243335205078125,10.025328636169434,4.015754699707031,-0.38703906536102295
1772883670764944400,6.2599443359375,9.945169448852539,3.9900317192077637,-0.3002992272377014
1772883670781548300,6.27654833984375,9.906285285949707,3.8021950721740723,-0.19621145725250244
1772883670798154200,6.293154296875,10.204192161560059,3.301496982574463,0.013160524889826775
1772883670814763000,6.309762939453125,10.820343971252441,2.688934564590454,0.2350948303937912
1772883670831349800,6.326349853515625,11.439486503601074,2.101496458053589,0.3326023519039154
1772883670847969000,6.342968994140625,11.645867347717285,1.5541383028030396,0.2602194547653198
1772883670864570000,6.359570068359375,11.414361953735352,1.3094722032546997,0.04905286431312561
1772883670881183200,6.376183349609375,10.845468521118164,1.2233306169509888,-0.14895321428775787
1772883670897780000,6.392780029296875,10.239486694335938,1.3417752981185913,-0.25004997849464417
1772883670914394400,6.409394287109375,9.78963565826416,1.5906288623809814,-0.24586252868175507
1772883670930978300,6.425978271484375,9.482157707214355,1.9597218036651611,-0.12622138857841492
1772883670947600000,6.442599853515625,9.171091079711914,2.3270199298858643,0.18424734473228455
1772883670964201000,6.459200927734375,9.031708717346191,2.682354211807251,0.4456632137298584
1772883670980809700,6.475809814453125,8.730213165283203,2.9934210777282715,0.5886343717575073
1772883670997419800,6.492419677734375,8.302495956420898,3.329014539718628,0.5647061467170715
1772883671014019000,6.50901904296875,8.093722343444824,3.5647075176239014,0.7304090857505798
1772883671030609000,6.52560888671875,8.132007598876953,3.635295867919922,0.9553344249725342
1772883671047212500,6.542212646484375,8.1553373336792,3.668795347213745,0.97926265001297
1772883671063805200,6.55880517578125,8.318648338317871,3.5533416271209717,0.6765705943107605
1772883671080421000,6.575421142578125,8.71346378326416,3.325425386428833,0.380458801984787
1772883671097031700,6.59203173828125,8.989236831665039,3.0011978149414062,-0.015553346835076809
1772883671113636000,6.608635986328125,9.049654960632324,2.709273338317871,-0.4773681163787842
1772883671130253800,6.62525390625,8.895915985107422,2.5914268493652344,-0.9074779748916626
1772883671146847000,6.641846923828125,8.629117012023926,2.681756019592285,-1.1682956218719482
1772883671163465200,6.65846533203125,8.288139343261719,3.035893678665161,-1.073180913925171
1772883671180073000,6.675072998046875,7.963313579559326,3.3744781017303467,-0.7674978375434875
1772883671196671000,6.6916708984375,7.801798343658447,3.671786308288574,-0.4582255482673645
1772883671213286700,6.70828662109375,7.987242221832275,3.8153557777404785,-0.2189432680606842
1772883671229878000,6.7248779296875,8.327621459960938,3.8877387046813965,0.12861421704292297
1772883671246491000,6.741490966796875,8.404191017150879,4.019941806793213,0.46420758962631226
1772883671263095800,6.758095703125,8.295916557312012,4.223331928253174,0.5904290080070496
1772883671279701200,6.774701171875,8.218149185180664,4.289134502410889,0.6586244106292725
1772883671296306700,6.791306640625,8.061419486999512,4.230510234832764,0.6346961855888367
1772883671312910300,6.807910400390625,7.954938888549805,4.263411521911621,0.5210371017456055
1772883671329516800,6.824516845703125,8.163114547729492,4.361517429351807,0.5060819983482361
1772883671346145500,6.8411455078125,8.952746391296387,4.40757942199707,0.6023930907249451
1772883671362730800,6.857730712890625,9.384052276611328,4.387838363647461,0.6765705943107605
1772883671379323100,6.8743232421875,9.381659507751465,4.474578380584717,0.5958128571510315
1772883671395940900,6.89094091796875,9.053244590759277,4.578067779541016,0.40737804770469666
1772883671412542000,6.9075419921875,8.899505615234375,4.619344234466553,0.39900317788124084
1772883671429146400,6.924146484375,8.882157325744629,4.593621253967285,0.6041877269744873
1772883671445748500,6.94074853515625,9.158528327941895,4.7234320640563965,0.8620143532752991
1772883671462355000,6.95735498046875,9.606584548950195,5.044668197631836,0.7902296781539917
1772883671478959900,6.9739599609375,9.878170013427734,5.06799840927124,0.6550351977348328
1772883671495570700,6.99057080078125,9.805787086486816,4.842474937438965,0.6203392744064331
1772883671512171800,7.007171875,9.952945709228516,4.794020175933838,0.32243284583091736
1772883671528759800,7.023759765625,10.128219604492188,4.65224552154541,0.3200400173664093
1772883671545362000,7.04036181640625,10.048060417175293,4.565505504608154,0.28654050827026367
1772883671561973500,7.056973388671875,10.195816993713379,4.319045066833496,0.21236300468444824
1772883671578575000,7.0735751953125,10.711470603942871,3.7010984420776367,0.4007977843284607
1772883671595187000,7.09018701171875,11.351551055908203,3.0370900630950928,0.5455635786056519
1772883671611788500,7.10678857421875,11.639287948608398,2.231905221939087,0.48035913705825806
1772883671628393700,7.123393798828125,11.48375415802002,1.6785650253295898,0.013160524889826775
1772883671644998400,7.139998291015625,11.030912399291992,1.3914263248443604,-0.5742774605751038
1772883671661621200,7.156621337890625,10.01575756072998,1.3351950645446777,-0.8512466549873352
1772883671678218200,7.17321826171875,8.94676399230957,1.6259230375289917,-0.9912267923355103
1772883671786155800,7.28115576171875,7.706085205078125,3.448655605316162,0.3966103494167328
1772883671802760200,7.29776025390625,7.8424763679504395,3.297309637069702,0.3326023519039154
1772883671819363600,7.314363525390625,8.185248374938965,3.0963125228881836,0.20518454909324646
1772883671835954700,7.33095458984375,8.337790489196777,2.8211379051208496,0.09212367236614227
1772883671852576300,7.347576171875,8.34018325805664,2.6458635330200195,-0.10049854964017868
1772883671869180400,7.364180419921875,8.283951759338379,2.50289249420166,-0.2829512655735016
1772883671885785900,7.380785888671875,8.439485549926758,2.3808584213256836,-0.31345975399017334
1772883671902390300,7.397390380859375,8.422137260437012,2.2983062267303467,-0.24227328598499298
1772883671918980600,7.413980712890625,8.742775917053223,2.36291241645813,-0.09032905846834183
1772883671935601400,7.430601318359375,9.031708717346191,2.396411895751953,0.2955136001110077
1772883671952207000,7.44720703125,9.09811019897461,2.486740827560425,0.4773681163787842
1772883671968810800,7.463810791015625,9.004789352416992,2.624328136444092,0.49351966381073
1772883671985416200,7.480416259765625,8.657830238342285,2.778067111968994,0.534795880317688
1772883672002020900,7.497020751953125,8.336593627929688,3.0664021968841553,0.5868397355079651
1772883672018590200,7.513590087890625,8.23549747467041,3.3613176345825195,0.6514459848403931
1772883672035217400,7.530217529296875,8.322834968566895,3.576671600341797,0.7148557901382446
1772883672051819300,7.5468193359375,8.465208053588867,3.6879379749298096,0.7914260625839233
1772883672068417300,7.563417236328125,8.754141807556152,3.8626139163970947,0.8578268885612488
1772883672085033200,7.580033203125,9.035896301269531,3.912863254547119,0.9475577473640442
1772883672101637600,7.5966376953125,9.565906524658203,4.0181474685668945,1.0648061037063599
1772883672118243300,7.613243408203125,9.970293998718262,3.9631125926971436,1.3010972738265991
1772883672134848000,7.629847900390625,10.153943061828613,3.9254255294799805,1.49611234664917
1772883672151471000,7.64647119140625,10.317253112792969,3.9355950355529785,1.5858432054519653
1772883672168071400,7.663071533203125,10.62114143371582,3.8428730964660645,1.6648063659667969
1772883672184676900,7.6796767578125,10.761719703674316,3.733999729156494,1.6683956384658813
1772883672201281800,7.69628173828125,10.435697555541992,3.7034912109375,1.4835500717163086
1772883672217870600,7.71287060546875,10.097711563110352,3.8111681938171387,1.2993026971817017
1772883672234492700,7.72949267578125,10.463813781738281,3.9487555027008057,1.3704891204833984
1772883672251097300,7.746097412109375,10.627721786499023,3.7423746585845947,1.688136339187622
1772883672267702800,7.762702880859375,10.323833465576172,3.3894333839416504,1.7114664316177368
1772883672284307500,7.779307373046875,10.007980346679688,3.273979663848877,1.3920245170593262
1772883672300912000,7.795912109375,9.689735412597656,2.888136863708496,1.342971682548523
1772883672317517600,7.812517578125,9.768698692321777,2.2618155479431152,1.3758729696273804
1772883672334126000,7.8291259765625,10.38485050201416,1.5415760278701782,1.3052847385406494
1772883672350724900,7.845724853515625,11.082956314086914,0.906281590461731,0.914058268070221
1772883672367332600,7.86233251953125,11.030314445495605,0.5539384484291077,0.6197410821914673
1772883672383937800,7.878937744140625,10.240084648132324,0.597607433795929,0.6293123364448547
1772883672400542700,7.895542724609375,9.160323143005371,1.0683952569961548,0.7872386574745178
1772883672417138000,7.912137939453125,8.366504669189453,1.5756736993789673,0.8482556343078613
1772883672433746700,7.92874658203125,8.254639625549316,1.9148563146591187,0.8321040868759155
1772883672450358000,7.94535791015625,8.37009334564209,1.948355793952942,0.989432156085968
1772883672466963200,7.961963134765625,8.396414756774902,2.105085611343384,1.124626636505127
1772883672483568400,7.978568359375,8.229515075683594,2.417349100112915,1.3573286533355713
1772883672500173000,7.995173095703125,8.294121742248535,2.589632272720337,1.482353687286377
1772883672516761300,8.01176123046875,8.501100540161133,2.510071039199829,1.48055899143219
1772883672533369600,8.02836962890625,8.8707914352417,2.3772692680358887,1.2335001230239868
1772883672549975300,8.044975341796874,9.330811500549316,2.222334146499634,0.9523434042930603
1772883672566579500,8.061579345703125,9.6466646194458,2.142174482345581,0.6346961855888367
1772883672583184600,8.0781845703125,9.588040351867676,2.0865414142608643,0.3188436031341553
1772883672599789600,8.09478955078125,9.360722541809082,2.115255117416382,0.014356935396790504
1772883672616395300,8.111395263671875,9.012566566467285,2.2325034141540527,-0.1453639715909958
1772883672633000200,8.128000244140624,8.804390907287598,2.383251428604126,-0.12921242415905
1772883672649622300,8.144622314453125,8.915657043457031,2.612962245941162,-0.017946170642971992
1772883672666223900,8.161223876953125,9.125627517700195,2.6297121047973633,0.004785645287483931
1772883672682829600,8.17782958984375,9.072386741638184,2.644068956375122,-0.0568295381963253
1772883672699433200,8.19443310546875,8.888139724731445,2.7427730560302734,-0.13639089465141296
1772883672716060400,8.211060302734374,8.803194046020508,2.929413080215454,-0.20159530639648438
1772883672732643600,8.2276435546875,8.61475944519043,3.032304525375366,-0.1902294009923935
1772883672749250000,8.24425,8.544171333312988,3.1758737564086914,-0.26979073882102966
1772883672765854200,8.260854248046876,8.628518104553223,3.2584261894226074,-0.32721850275993347
1772883672782459600,8.277459716796875,8.766703605651855,3.284149169921875,-0.3517449200153351
1772883672799063800,8.294063720703125,8.673383712768555,3.3511481285095215,-0.4749752879142761
1772883672815652900,8.31065283203125,8.574081420898438,3.541377544403076,-0.4827519655227661
1772883672832274400,8.3272744140625,8.653642654418945,3.6430723667144775,-0.5252245664596558
1772883672848879600,8.343879638671876,9.090332984924316,3.5617165565490723,-0.5473581552505493
1772883672865484800,8.36048486328125,9.494122505187988,3.494119167327881,-0.4546363055706024
1772883672882090200,8.37709033203125,9.621540069580078,3.3930225372314453,-0.24586252868175507
1772883672898694100,8.393694091796876,9.713065147399902,3.436093330383301,-0.11665010452270508
1772883672915285200,8.41028515625,10.306485176086426,3.597010612487793,-0.3152543902397156
1772883672931904500,8.426904541015626,11.205588340759277,3.5377883911132812,-0.6173482537269592
1772883672948510000,8.443510009765625,11.71585750579834,3.328416347503662,-0.7172485589981079
1772883672965115100,8.460115234375,11.468798637390137,3.4887354373931885,-0.7579265832901001
1772883672981720300,8.47672021484375,11.078768730163574,3.6227335929870605,-0.7016952633857727
1772883672998307800,8.493307861328125,11.071590423583984,3.3475589752197266,-0.41216370463371277
1772883673014916900,8.509916748046875,11.72124195098877,3.012563705444336,-0.09272187948226929
1772883673031509800,8.526509765625,12.574881553649902,2.41375994682312,-0.054436713457107544
1772883673048126700,8.543126708984374,12.716655731201172,1.7407784461975098,-0.07956135272979736
1772883673064731600,8.559731689453125,12.352348327636719,1.2161520719528198,-0.20518454909324646
1772883673081336800,8.5763369140625,11.792428016662598,0.8446664214134216,-0.5826523303985596
1772883673097929200,8.59292919921875,10.736595153808594,0.6867401003837585,-0.8267202377319336
1772883673114534100,8.6095341796875,9.736394882202148,0.9014959335327148,-0.900897741317749
1772883673131155500,8.626155517578125,8.930612564086914,1.2191431522369385,-0.9702895879745483
1772883673147771600,8.642771728515624,8.168498039245605,1.550549030303955,-0.9780662655830383
1772883673164375300,8.659375244140625,7.713263988494873,1.8137595653533936,-1.0402796268463135
1772883673180980700,8.675980712890626,7.557132244110107,1.9848463535308838,-1.0480563640594482
1772883673197585400,8.69258544921875,7.52004337310791,2.15653133392334,-1.0606186389923096
1772883673214174500,8.709174560546876,7.743772506713867,2.2582263946533203,-0.9272187948226929
1772883673230796300,8.72579638671875,7.922635555267334,2.2815563678741455,-0.607776939868927
1772883673247402000,8.742402099609375,8.071588516235352,2.3198416233062744,-0.40259242057800293
1772883673264010500,8.759010498046875,8.088936805725098,2.3922245502471924,-0.4785645306110382
1772883673280606500,8.7756064453125,8.168498039245605,2.4424736499786377,-0.6125625967979431
1772883673297215700,8.7922158203125,8.236693382263184,2.3850460052490234,-0.5515456199645996
1772883673313820200,8.808820068359376,8.545966148376465,2.4466612339019775,-0.6197410821914673
1772883673330426600,8.825426513671875,8.837890625,2.4640090465545654,-0.6263213157653809
1772883673347032000,8.842031982421876,9.010173797607422,2.4705893993377686,-0.6221339106559753
1772883673363636200,8.85863623046875,8.763712882995605,2.5501506328582764,-0.6921239495277405
1772883673380241700,8.87524169921875,8.331210136413574,2.585444927215576,-0.9475577473640442
1772883673396846300,8.891846435546874,8.123632431030273,2.7212376594543457,-0.8398807644844055
1772883673413436000,8.908435791015625,8.386244773864746,2.864806890487671,-0.46719861030578613
1772883673430061300,8.925061279296875,8.800203323364258,2.89890456199646,0.01375873014330864
1772883673446657500,8.941657470703126,8.898907661437988,2.8773691654205322,0.4001995921134949
1772883673463283200,8.958283203125,8.489136695861816,3.0215368270874023,0.40378883481025696
1772883673479855600,8.974855712890625,7.99083137512207,3.25663161277771,0.24047867953777313
1772883673496459800,8.991459716796875,8.033304214477539,3.267399311065674,0.16869398951530457
1772883673513055500,9.008055419921876,8.185248374938965,3.270390272140503,-0.052043892443180084
