time,seconds_elapsed,z,y,x
1772883352184199000,0.246198974609375,-0.06704998016357422,0.010419845581054688,0.3112683892250061
1772883352200798200,0.262798095703125,0.06786346435546875,0.09429168701171875,0.3711180090904236
1772883352217404700,0.27940478515625,0.49944496154785156,0.12564802169799805,0.406830757856369
1772883352234036500,0.296036376953125,0.8513307571411133,0.11532354354858398,0.4543216824531555
1772883352250610400,0.3126103515625,1.0187854766845703,0.09579944610595703,0.4490338861942291
1772883352267224300,0.329224365234375,1.0939054489135742,0.008061885833740234,0.43701303005218506
1772883352283828500,0.345828369140625,1.1328821182250977,-0.06388330459594727,0.4063218832015991
1772883352300434200,0.36243408203125,1.126500129699707,-0.1380763053894043,0.4469379186630249
1772883352317063400,0.3790634765625,1.1279993057250977,-0.11432743072509766,0.43585753440856934
1772883352333644500,0.39564453125,1.1498804092407227,-0.1145625114440918,0.40047740936279297
1772883352350238200,0.41223828125,1.121546745300293,-0.15274858474731445,0.3846190571784973
1772883352366853400,0.428853271484375,1.1119327545166016,-0.13865041732788086,0.3881608843803406
1772883352383449900,0.445449951171875,1.4048023223876953,-0.16250371932983398,0.6078883409500122
1772883352400066600,0.462066650390625,1.8528852462768555,-0.3536951541900635,0.8747233152389526
1772883352416649200,0.478649169921875,1.90576171875,-0.5758852958679199,1.1834871768951416
1772883352433264000,0.49526416015625,1.5721149444580078,-0.7332792282104492,1.3386260271072388
1772883352449851100,0.51185107421875,1.4577951431274414,-0.9155945777893066,1.3474537134170532
1772883352466487600,0.528487548828125,1.3530054092407227,-1.2248167991638184,1.2312771081924438
1772883352483105300,0.545105224609375,1.337137222290039,-1.602379322052002,1.0741071701049805
1772883352499698000,0.561697998046875,1.1734294891357422,-1.784398078918457,1.1657063961029053
1772883352516312300,0.578312255859375,0.9384317398071289,-1.870469331741333,1.5145649909973145
1772883352532921000,0.594921142578125,0.6985893249511719,-1.9062705039978027,1.859957218170166
1772883352549502200,0.611502197265625,0.6219263076782227,-1.8718104362487793,2.1328160762786865
1772883352566104600,0.6281044921875,0.6105232238769531,-1.859112024307251,2.251110315322876
1772883352582712300,0.64471240234375,0.26371002197265625,-1.8306188583374023,2.225672960281372
1772883352599318300,0.661318359375,-0.14102649688720703,-1.712782621383667,2.122765302658081
1772883352615911700,0.67791162109375,-0.287078857421875,-1.6139779090881348,2.0520641803741455
1772883352632529000,0.69452880859375,-0.032649993896484375,-1.502157211303711,2.136263132095337
1772883352649135400,0.71113525390625,0.25458621978759766,-1.4083971977233887,2.2518653869628906
1772883352665740800,0.72774072265625,0.4468698501586914,-1.3332457542419434,2.211568593978882
1772883352682344700,0.7443447265625,0.643010139465332,-1.376443862915039,2.042893886566162
1772883352698972400,0.760972412109375,0.7404804229736328,-1.496950626373291,1.7734103202819824
1772883352715554600,0.777554443359375,0.722900390625,-1.6034603118896484,1.4809367656707764
1772883352732158700,0.79415869140625,0.5859308242797852,-1.638101577758789,1.2755637168884277
1772883352748764700,0.8107646484375,0.3228569030761719,-1.5221319198608398,1.1937766075134277
1772883352765381400,0.82738134765625,-0.16196346282958984,-1.335848331451416,1.193252682685852
1772883352781985500,0.843985595703125,-0.6867532730102539,-1.1310620307922363,1.2071771621704102
1772883352798597400,0.860597412109375,-1.0384130477905273,-0.9425110816955566,1.2521482706069946
1772883352815186700,0.877186767578125,-1.3271865844726562,-0.7929120063781738,1.156980037689209
1772883352831806700,0.893806640625,-1.4210014343261719,-0.7406935691833496,1.0242887735366821
1772883352848413000,0.910412841796875,-1.2256298065185547,-0.6841726303100586,0.9627021551132202
1772883352865036000,0.9270361328125,-1.0068435668945312,-0.6689047813415527,0.8695785403251648
1772883352881622500,0.94362255859375,-0.9574337005615234,-0.6532669067382812,0.7269529104232788
1772883352898230500,0.96023046875,-1.1675949096679688,-0.6049141883850098,0.6366817355155945
1772883352914837000,0.9768369140625,-1.1302671432495117,-0.49106693267822266,0.7301924824714661
1772883352931425000,0.993425048828125,-0.7885160446166992,-0.38332271575927734,0.847123920917511
1772883352948027600,1.010027587890625,-0.4903397560119629,-0.39768075942993164,0.8460079431533813
1772883352964654000,1.026654052734375,-0.33898067474365234,-0.4639739990234375,0.7629711627960205
1772883352981254700,1.043254638671875,-0.24773025512695312,-0.43781089782714844,0.6848671436309814
1772883352997866500,1.059866455078125,-0.042201995849609375,-0.41029834747314453,0.7169681191444397
1772883353014447900,1.07644775390625,0.060794830322265625,-0.3732919692993164,0.721806526184082
1772883353031084800,1.093084716796875,0.10640907287597656,-0.3293948173522949,0.6379023790359497
1772883353047687000,1.10968701171875,0.1429290771484375,-0.2759385108947754,0.6573925018310547
1772883353064270600,1.1262705078125,0.38616085052490234,-0.26975154876708984,0.8212750554084778
1772883353080881400,1.14288134765625,0.8027114868164062,-0.34328699111938477,0.9869415163993835
1772883353097481000,1.15948095703125,1.2789087295532227,-0.31903696060180664,0.9966148138046265
1772883353114087000,1.1760869140625,1.3440675735473633,-0.20375299453735352,0.8183963894844055
1772883353130695000,1.19269482421875,0.9616146087646484,-0.1794266700744629,0.7275398373603821
1772883353147297000,1.209297119140625,0.8690395355224609,0.03469419479370117,0.5161042213439941
1772883353163903200,1.2259033203125,0.8853721618652344,0.11089468002319336,0.5667739510536194
1772883353180525000,1.242525146484375,1.4401683807373047,-0.1119842529296875,0.7116754055023193
1772883353197127000,1.259126953125,2.3778905868530273,-0.6139721870422363,0.9778888821601868
1772883353213734700,1.275734619140625,2.9282150268554688,-1.165285587310791,1.2757177352905273
1772883353230339300,1.29233935546875,3.0441436767578125,-1.695936679840088,1.4751118421554565
1772883353246943000,1.30894287109375,2.9532365798950195,-2.0993218421936035,1.4196569919586182
1772883353263565600,1.325565673828125,2.3339614868164062,-2.3695220947265625,1.1161010265350342
1772883353280154400,1.342154296875,1.1452112197875977,-2.375974655151367,0.8110366463661194
1772883353296816000,1.358816162109375,-0.13062286376953125,-2.220747470855713,0.545965313911438
1772883353313354000,1.37535400390625,-1.0690298080444336,-1.9753398895263672,0.3285934627056122
1772883353329977900,1.391977783203125,-1.4381828308105469,-1.798064947128296,0.19019575417041779
1772883353346572000,1.408572021484375,-1.1677675247192383,-1.7982373237609863,0.1647072285413742
1772883353363161000,1.4251611328125,-0.47303295135498047,-1.9030733108520508,0.2431124746799469
1772883353379794400,1.44179443359375,0.10240650177001953,-2.0339152812957764,0.4299737811088562
1772883353396390700,1.458390625,0.3192424774169922,-1.9780080318450928,0.5977272987365723
1772883353412981000,1.47498095703125,0.5160808563232422,-1.871652603149414,0.6522939205169678
1772883353429586400,1.49158642578125,0.9867467880249023,-1.835334300994873,0.683789849281311
1772883353446203100,1.508203125,1.569279670715332,-1.9342901706695557,0.6687010526657104
1772883353462817500,1.524817626953125,1.765061378479004,-2.066735029220581,0.504362165927887
1772883353479417600,1.54141748046875,1.3510074615478516,-2.0869953632354736,0.2163611650466919
1772883353496036000,1.5580361328125,0.6573886871337891,-1.955127239227295,-0.024548307061195374
1772883353512625400,1.57462548828125,-0.010607719421386719,-1.6723370552062988,-0.012712657451629639
1772883353529228500,1.591228515625,-0.42600154876708984,-1.375666618347168,0.18280678987503052
1772883353545837600,1.607837646484375,-0.48711490631103516,-1.1338980197906494,0.381833553314209
1772883353562430500,1.624430419921875,-0.19089889526367188,-1.0085783004760742,0.554082989692688
1772883353579038000,1.641037841796875,0.036922454833984375,-0.9848384857177734,0.6185495853424072
1772883353595648800,1.657648681640625,-0.07163238525390625,-0.9321978092193604,0.6100726127624512
1772883353612244200,1.674244140625,-0.23551464080810547,-0.7753677368164062,0.6946075558662415
1772883353628854500,1.6908544921875,-0.2974891662597656,-0.5619659423828125,0.9065167903900146
1772883353645460200,1.707460205078125,-0.17391014099121094,-0.30953407287597656,1.1444956064224243
1772883353662066700,1.724066650390625,0.03540229797363281,-0.18649816513061523,1.3267719745635986
1772883353678687500,1.7406875,0.3296804428100586,-0.20142841339111328,1.4230358600616455
1772883353695288300,1.757288330078125,0.5187854766845703,-0.36331701278686523,1.4069204330444336
1772883353711894800,1.773894775390625,0.6557216644287109,-0.5407857894897461,1.3208677768707275
1772883353728499500,1.79049951171875,0.6180925369262695,-0.6859545707702637,1.2322275638580322
1772883353745100000,1.80710009765625,0.4898242950439453,-0.7850184440612793,1.1111714839935303
1772883353761713400,1.82371337890625,0.5029945373535156,-0.8253533840179443,1.0585899353027344
1772883353778316500,1.840316650390625,0.6368961334228516,-0.8784513473510742,1.0452146530151367
1772883353794920700,1.856920654296875,0.7076702117919922,-0.975100040435791,0.9794381260871887
1772883353811507700,1.8735078125,0.786381721496582,-1.097142219543457,0.9196566939353943
1772883353828135000,1.890135009765625,0.8497467041015625,-1.1097683906555176,0.831488311290741
1772883353844737000,1.906737060546875,1.0650968551635742,-1.0242486000061035,0.6491410732269287
1772883353861345500,1.923345458984375,1.1477441787719727,-0.8571834564208984,0.6449540257453918
1772883353877954000,1.9399541015625,1.2292184829711914,-0.6750969886779785,0.7316498756408691
1772883353894551600,1.956551513671875,1.3331031799316406,-0.8370566368103027,1.154289960861206
1772883353911144400,1.97314453125,1.520009994506836,-1.148749589920044,1.6862738132476807
1772883353927765500,1.989765625,1.8252067565917969,-1.4079859256744385,1.9890403747558594
1772883353944365300,2.006365234375,2.076841354370117,-1.608191728591919,1.9630324840545654
1772883353960986600,2.022986572265625,2.074093818664551,-1.786895751953125,1.7111108303070068
1772883353977591300,2.03959130859375,1.6321792602539062,-1.8662834167480469,1.5132803916931152
1772883353994185700,2.056185791015625,0.8070211410522461,-1.8012607097625732,1.4538170099258423
1772883354010777900,2.07277783203125,-0.09507274627685547,-1.6596226692199707,1.5180211067199707
1772883354027397000,2.089397216796875,-0.5576000213623047,-1.5456764698028564,1.7164506912231445
1772883354043991300,2.1059912109375,-0.4731016159057617,-1.6234042644500732,1.9442402124404907
1772883354060593400,2.122593505859375,-0.16062259674072266,-1.7726755142211914,2.0707669258117676
1772883354077200100,2.1392001953125,0.31243324279785156,-1.8914680480957031,2.2722949981689453
1772883354093808000,2.15580810546875,0.603062629699707,-1.9452595710754395,2.4527502059936523
1772883354110405400,2.1724052734375,0.5142250061035156,-1.8782131671905518,2.5375139713287354
1772883354127019800,2.189019775390625,0.1032857894897461,-1.7546734809875488,2.5408527851104736
1772883354143621400,2.205621337890625,-0.20522403717041016,-1.6125855445861816,2.5829389095306396
1772883354160244000,2.222243896484375,-0.2243642807006836,-1.4993717670440674,2.5756499767303467
1772883354176827000,2.238826904296875,-0.08074378967285156,-1.4660677909851074,2.4658474922180176
1772883354193454000,2.2554541015625,0.027164459228515625,-1.5193629264831543,2.18902325630188
1772883354210037200,2.272037353515625,-0.02617168426513672,-1.5552105903625488,1.7649178504943848
1772883354226698000,2.288697998046875,-0.254180908203125,-1.4762580394744873,1.3360795974731445
1772883354243261000,2.305260986328125,-0.516413688659668,-1.2964887619018555,1.001399278640747
1772883354259879700,2.321879638671875,-0.7459659576416016,-1.0762393474578857,0.8065005540847778
1772883354276460500,2.33846044921875,-0.7538385391235352,-0.8560853004455566,0.7383357286453247
1772883354293082400,2.355082275390625,-0.4019041061401367,-0.7322180271148682,0.8258050680160522
1772883354309681000,2.371680908203125,-0.08644485473632812,-0.6749649047851562,0.8492711782455444
1772883354326293800,2.388293701171875,-0.024721145629882812,-0.6255426406860352,0.7880131006240845
1772883354342900700,2.404900634765625,-0.05098438262939453,-0.4983048439025879,0.7558450698852539
1772883354359505200,2.421505126953125,-0.1873331069946289,-0.3397383689880371,0.7560771703720093
1772883354376096800,2.4380966796875,-0.25824546813964844,-0.22192716598510742,0.7411396503448486
1772883354392717800,2.4547177734375,-0.23830509185791016,-0.1619124412536621,0.7944937348365784
1772883354409319200,2.471319091796875,-0.2722005844116211,-0.11510610580444336,0.7998817563056946
1772883354425926700,2.4879267578125,-0.2745780944824219,-0.09238004684448242,0.8195791840553284
1772883354442512100,2.50451220703125,-0.2568092346191406,-0.048661231994628906,0.8384730815887451
1772883354459142000,2.521141845703125,-0.15867137908935547,-0.02389812469482422,0.7248097062110901
1772883354475773000,2.53777294921875,-0.05129241943359375,-0.05387592315673828,0.4828915596008301
1772883354492347400,2.554347412109375,-0.07918548583984375,-0.09660625457763672,0.2246512472629547
1772883354508923600,2.570923583984375,0.10692119598388672,-0.09589290618896484,0.10895347595214844
1772883354575363000,2.637363037109375,2.525446891784668,-0.3507113456726074,0.45876291394233704
1772883354591969500,2.653969482421875,2.3044509887695312,-0.27938032150268555,0.363436222076416
1772883354608553700,2.6705537109375,1.8892488479614258,0.11842679977416992,0.09277856349945068
1772883354625179600,2.6871796875,1.3939838409423828,0.4087967872619629,0.15528488159179688
1772883354641783300,2.703783203125,0.9078006744384766,0.3688979148864746,0.7335100173950195
1772883354658406100,2.72040625,0.7355003356933594,0.10017585754394531,1.5551353693008423
1772883354674993400,2.736993408203125,1.324864387512207,-0.4755091667175293,1.9340248107910156
1772883354691612200,2.753612060546875,2.3253841400146484,-1.3913326263427734,1.7826073169708252
1772883354708197400,2.770197265625,2.3999557495117188,-2.2203879356384277,1.3213754892349243
1772883354724825000,2.7868251953125,1.3510122299194336,-2.700591564178467,0.8275709748268127
1772883354741426200,2.80342626953125,0.014087677001953125,-2.747713088989258,0.4786843955516815
1772883354758036000,2.820035888671875,-0.9434890747070312,-2.4940133094787598,0.2586580216884613
1772883354774625500,2.83662548828125,-1.303420066833496,-2.0995421409606934,0.28901851177215576
1772883354791244800,2.853244873046875,-1.1238956451416016,-1.8291172981262207,0.4144575893878937
1772883354807862300,2.8698623046875,-0.4737720489501953,-1.8418326377868652,0.4593537449836731
1772883354824460000,2.8864599609375,0.2972564697265625,-2.0552544593811035,0.39724040031433105
1772883354841087700,2.903087646484375,0.8797159194946289,-2.1807403564453125,0.3393227458000183
1772883354857669400,2.91966943359375,1.0287609100341797,-2.1500067710876465,0.4754364490509033
1772883354874262000,2.936261962890625,0.9843845367431641,-1.9533076286315918,0.624660849571228
1772883354890881000,2.952881103515625,0.8612556457519531,-1.7718477249145508,0.6966784596443176
1772883354907453400,2.969453369140625,0.8355503082275391,-1.6620821952819824,0.827444314956665
1772883354924088800,2.9860888671875,0.8609170913696289,-1.6498146057128906,0.9091604351997375
1772883354940675000,3.002675048828125,0.6944656372070312,-1.6469953060150146,0.815932035446167
1772883354957302000,3.019302001953125,0.3625154495239258,-1.6159138679504395,0.6800744533538818
1772883354973892600,3.035892578125,0.03526115417480469,-1.5358476638793945,0.5661609768867493
1772883354990513200,3.05251318359375,-0.06228351593017578,-1.4908714294433594,0.41023463010787964
1772883355007128000,3.069128173828125,0.06406974792480469,-1.5339326858520508,0.34408438205718994
1772883355023723000,3.085722900390625,0.14615154266357422,-1.5400753021240234,0.3979034721851349
1772883355040308000,3.102307861328125,0.09149837493896484,-1.5048353672027588,0.5782575607299805
1772883355056923000,3.1189228515625,-0.07282638549804688,-1.4053735733032227,0.7927662134170532
1772883355073524000,3.13552392578125,-0.3314218521118164,-1.2835536003112793,0.9114192128181458
1772883355090131000,3.152130859375,-0.5752897262573242,-1.1068086624145508,1.0013079643249512
1772883355106737000,3.16873681640625,-0.6413393020629883,-0.9771695137023926,1.011461853981018
1772883355123339300,3.18533935546875,-0.5700855255126953,-0.8467025756835938,0.9440356492996216
1772883355139961300,3.20196142578125,-0.5215063095092773,-0.7054615020751953,0.786558985710144
1772883355156553700,3.2185537109375,-0.5940017700195312,-0.598630428314209,0.7044169902801514
1772883355173155600,3.235155517578125,-0.6635799407958984,-0.45572853088378906,0.7424585819244385
1772883355189776600,3.251776611328125,-0.46746826171875,-0.3440370559692383,0.7897857427597046
1772883355206365400,3.268365478515625,-0.09724140167236328,-0.3379707336425781,0.7862190008163452
1772883355222987500,3.284987548828125,0.2917947769165039,-0.38564491271972656,0.9017016887664795
1772883355239593700,3.30159375,0.7508106231689453,-0.40889883041381836,1.0705530643463135
1772883355256198100,3.3181982421875,1.3532581329345703,-0.4865398406982422,1.1723939180374146
1772883355272804400,3.334804443359375,1.8484869003295898,-0.5236248970031738,1.018356204032898
1772883355289407200,3.3514072265625,1.9639739990234375,-0.5075621604919434,0.8749610185623169
1772883355305994000,3.367993896484375,1.963831901550293,-0.44472217559814453,0.9399371147155762
1772883355322605000,3.38460498046875,1.9455928802490234,-0.2627592086791992,1.0212371349334717
1772883355339225900,3.401225830078125,1.7006053924560547,-0.15831708908081055,1.0918848514556885
1772883355355835000,3.4178349609375,1.4546289443969727,-0.1645960807800293,1.1648423671722412
1772883355372419800,3.434419921875,1.4921188354492188,-0.42183732986450195,1.327654480934143
1772883355389028900,3.45102880859375,1.9312067031860352,-0.9470272064208984,1.4039956331253052
1772883355405646800,3.467646728515625,2.1734485626220703,-1.4527239799499512,1.4197149276733398
1772883355422275600,3.484275634765625,1.8859930038452148,-1.8007454872131348,1.4141361713409424
1772883355438854100,3.500854248046875,1.0577754974365234,-2.0139317512512207,1.394117832183838
1772883355455467500,3.517467529296875,0.11454391479492188,-2.0339183807373047,1.3812975883483887
1772883355472068000,3.534068115234375,-0.5650424957275391,-1.930762767791748,1.3544085025787354
1772883355488653800,3.55065380859375,-0.9941310882568359,-1.8555998802185059,1.2878773212432861
1772883355505267000,3.567266845703125,-0.9929337501525879,-1.6987042427062988,1.244605302810669
1772883355521885000,3.583885009765625,-0.7406234741210938,-1.565627098083496,1.2461920976638794
1772883355538473500,3.600473388671875,-0.3799934387207031,-1.4967851638793945,1.3003745079040527
1772883355555079000,3.617078857421875,-0.0772104263305664,-1.3631961345672607,1.5106678009033203
1772883355571690800,3.633690673828125,0.15507125854492188,-1.1495299339294434,1.7841795682907104
1772883355588288500,3.65028857421875,0.3433561325073242,-1.0201313495635986,1.975506067276001
1772883355604890600,3.666890625,0.6437845230102539,-0.9916472434997559,2.0368149280548096
1772883355621503700,3.683503662109375,1.060342788696289,-1.1056385040283203,1.9957542419433594
1772883355638122000,3.7001220703125,1.1832466125488281,-1.2797880172729492,1.8495155572891235
1772883355654732300,3.716732177734375,1.036210060119629,-1.426121473312378,1.6195876598358154
1772883355671329800,3.733329833984375,0.6493625640869141,-1.4912159442901611,1.3175971508026123
1772883355687922400,3.74992236328125,0.046202659606933594,-1.452681064605713,1.018245816230774
1772883355704528400,3.7665283203125,-0.49664974212646484,-1.2931509017944336,0.7911219596862793
1772883355721153800,3.78315380859375,-0.8640604019165039,-1.1271977424621582,0.7077701687812805
1772883355737751800,3.799751708984375,-0.9941973686218262,-0.96565842628479,0.7212642431259155
1772883355754364400,3.816364501953125,-0.8855247497558594,-0.851902961730957,0.7716121673583984
1772883355770962200,3.832962158203125,-0.8108749389648438,-0.77583909034729,0.8365260362625122
1772883355787575000,3.849574951171875,-0.801361083984375,-0.6523623466491699,0.8646451830863953
1772883355804187000,3.866186767578125,-0.7849464416503906,-0.5218672752380371,0.9294237494468689
1772883355820782600,3.882782470703125,-0.8021278381347656,-0.3424072265625,0.9986342787742615
1772883355837385500,3.899385498046875,-0.7045550346374512,-0.18189525604248047,1.1224517822265625
1772883355853995800,3.915995849609375,-0.5625495910644531,-0.08009576797485352,1.2083243131637573
1772883355870582300,3.932582275390625,-0.47985267639160156,-0.04904031753540039,1.1730928421020508
1772883355887203800,3.949203857421875,-0.49648189544677734,-0.04701042175292969,1.066114902496338
1772883355903814400,3.965814453125,-0.44482421875,-0.025185585021972656,1.0132105350494385
1772883355920410400,3.982410400390625,-0.15079498291015625,-0.051384925842285156,0.9260718822479248
1772883355937025000,3.99902490234375,0.1737203598022461,-0.10039424896240234,0.7120434045791626
1772883355953621000,4.01562109375,0.2978630065917969,-0.12823820114135742,0.5614555478096008
1772883355970219500,4.032219482421875,0.4836101531982422,-0.0777730941772461,0.5558760166168213
1772883355986837000,4.0488369140625,0.9567089080810547,-0.045294761657714844,0.6008380055427551
1772883356003421700,4.065421630859375,1.458688735961914,0.06651115417480469,0.42291802167892456
1772883356020034000,4.082033935546875,1.4275636672973633,0.25974607467651367,0.1508793830871582
1772883356036637200,4.09863720703125,1.1066169738769531,0.4548344612121582,0.08304697275161743
1772883356053246200,4.11524609375,1.0332832336425781,0.617671012878418,0.2563130259513855
1772883356069858800,4.13185888671875,1.452164649963379,0.6876430511474609,0.5244670510292053
1772883356086452200,4.1484521484375,2.335139274597168,0.554537296295166,0.6180039644241333
1772883356103063800,4.165063720703125,3.049740791320801,0.11386537551879883,0.5905411839485168
1772883356119669200,4.181669189453125,3.3538198471069336,-0.5037269592285156,0.5285616517066956
1772883356136281300,4.19828125,3.288167953491211,-1.0573301315307617,0.4116545617580414
1772883356152894500,4.21489453125,2.8864574432373047,-1.438642978668213,0.3486388027667999
1772883356169492700,4.23149267578125,2.0824966430664062,-1.6605587005615234,0.41977155208587646
1772883356186107400,4.248107421875,1.3134765625,-1.8045156002044678,0.36418306827545166
1772883356202701600,4.26470166015625,0.8361415863037109,-1.990715742111206,0.1314094066619873
1772883356219323600,4.28132373046875,0.4100341796875,-2.1492340564727783,-0.14889264106750488
1772883356235912000,4.297911865234375,-0.0052509307861328125,-2.1502578258514404,-0.1973646581172943
1772883356252528600,4.314528564453125,-0.46829986572265625,-2.0333456993103027,-0.13057011365890503
1772883356269106700,4.331106689453125,-0.6693639755249023,-1.9371085166931152,-0.05526316165924072
1772883356285730000,4.34772998046875,-0.5017862319946289,-1.8353729248046875,0.1001901626586914
1772883356302340600,4.364340576171875,-0.26175785064697266,-1.7767186164855957,0.2608400583267212
1772883356318934500,4.3809345703125,-0.07955646514892578,-1.7122650146484375,0.3896023631095886
1772883356335542800,4.397542724609375,-0.0747060775756836,-1.6525115966796875,0.42004135251045227
1772883356352158700,4.41415869140625,0.07540512084960938,-1.6373414993286133,0.3082086741924286
1772883356368741000,4.4307412109375,0.28481197357177734,-1.7291522026062012,0.21445994079113007
1772883356385370400,4.447370361328125,0.5148563385009766,-1.8075847625732422,0.21432377398014069
1772883356401964000,4.463964111328125,0.5524702072143555,-1.8119328022003174,0.3763399124145508
1772883356418581000,4.4805810546875,0.5015878677368164,-1.7363767623901367,0.5420713424682617
1772883356435186400,4.4971865234375,0.21183204650878906,-1.628084659576416,0.5778795480728149
1772883356451787800,4.513787841796875,-0.16512298583984375,-1.4948558807373047,0.5088539123535156
1772883356468392700,4.530392822265625,-0.3613862991333008,-1.4137847423553467,0.4967814087867737
1772883356484999000,4.5469990234375,-0.3882408142089844,-1.361036777496338,0.6548535823822021
1772883356501600800,4.563600830078125,-0.16181087493896484,-1.3775887489318848,0.7778464555740356
1772883356518195200,4.5801953125,0.02850627899169922,-1.392845630645752,0.8298738598823547
1772883356534801000,4.59680078125,0.031192779541015625,-1.3846778869628906,0.8521323800086975
1772883356551407600,4.61340771484375,-0.10664844512939453,-1.3349783420562744,0.8821777105331421
1772883356568009700,4.630009765625,-0.3601493835449219,-1.2601101398468018,0.8819355964660645
1772883356584617500,4.646617431640625,-0.5076942443847656,-1.1307663917541504,0.833500862121582
1772883356601222700,4.66322265625,-0.4852762222290039,-0.9376764297485352,0.8161412477493286
1772883356617846300,4.67984619140625,-0.33413219451904297,-0.7527055740356445,0.776324987411499
1772883356634452000,4.696451904296875,-0.038863182067871094,-0.6455812454223633,0.7579867839813232
1772883356651046700,4.713046630859375,0.27460289001464844,-0.535886287689209,0.7989823818206787
1772883356667643600,4.7296435546875,0.4558248519897461,-0.45961618423461914,0.8532506227493286
1772883356684252700,4.746252685546875,0.5369195938110352,-0.435943603515625,0.9963635802268982
1772883356700865000,4.762864990234375,0.9450721740722656,-0.45711660385131836,1.1628834009170532
1772883356717469400,4.779469482421875,1.613363265991211,-0.45473480224609375,1.285103678703308
1772883356734084900,4.7960849609375,2.075685501098633,-0.293304443359375,1.2974275350570679
1772883356750688500,4.8126884765625,2.05474853515625,-0.21686649322509766,1.3842719793319702
1772883356767273700,4.829273681640625,1.8511238098144531,-0.057053565979003906,1.2513387203216553
1772883356783896000,4.84589599609375,1.4600849151611328,0.11737585067749023,1.1108477115631104
1772883356800505300,4.86250537109375,1.043522834777832,0.2009110450744629,1.1931507587432861
1772883356817098500,4.879098388671875,0.9652814865112305,0.020882129669189453,1.4180508852005005
1772883356833712400,4.89571240234375,1.4796619415283203,-0.5238628387451172,1.6536250114440918
1772883356850321400,4.9123212890625,2.1312408447265625,-1.2790350914001465,1.9108452796936035
1772883356866907000,4.928906982421875,2.4362144470214844,-1.920860767364502,1.884949803352356
1772883356883528400,4.945528564453125,2.2053604125976562,-2.3362674713134766,1.6533727645874023
1772883356900129500,4.962129638671875,1.3207378387451172,-2.4965391159057617,1.408766746520996
1772883356916746000,4.97874609375,0.4760303497314453,-2.4269602298736572,1.2723264694213867
1772883356933344800,4.9953447265625,-0.18096065521240234,-2.1953728199005127,1.2915165424346924
1772883356949947400,5.011947509765625,-0.8095102310180664,-1.8487625122070312,1.4107553958892822
1772883356966571500,5.028571533203125,-1.1764349937438965,-1.522526741027832,1.5893781185150146
1772883356983164200,5.0451640625,-1.2413225173950195,-1.2590813636779785,1.6851701736450195
1772883356999747800,5.061747802734375,-1.1207904815673828,-1.157884120941162,1.6377856731414795
1772883357016359400,5.078359375,-0.8830413818359375,-1.1565113067626953,1.5631752014160156
1772883357032963000,5.094963134765625,-0.29473114013671875,-1.2011971473693848,1.6453944444656372
1772883357049568500,5.111568603515625,0.4116039276123047,-1.1730246543884277,1.8458054065704346
1772883357066159600,5.12815966796875,0.9780054092407227,-1.0890722274780273,1.9687690734863281
1772883357082779600,5.144779541015625,1.1746149063110352,-1.06605863571167,1.8932921886444092
1772883357099381500,5.161381591796875,0.9221858978271484,-1.0111279487609863,1.5563313961029053
1772883357116010800,5.1780107421875,0.6143875122070312,-0.9112672805786133,1.182615041732788
1772883357132609500,5.194609619140625,0.1559619903564453,-0.7971014976501465,0.868574321269989
1772883357149214500,5.21121435546875,-0.34998130798339844,-0.6200156211853027,0.5883316397666931
1772883357165841200,5.227841064453125,-0.5148558616638184,-0.47270822525024414,0.5236169099807739
1772883357182425900,5.24442578125,-0.26352405548095703,-0.3226628303527832,0.6021483540534973
1772883357199030800,5.26103076171875,0.030480384826660156,-0.3253898620605469,0.6782572269439697
1772883357215636500,5.277636474609375,0.011690139770507812,-0.38182640075683594,0.6592366695404053
1772883357232242200,5.2942421875,-0.17596435546875,-0.3864555358886719,0.5423296689987183
1772883357248846800,5.310846923828125,-0.40213966369628906,-0.3507866859436035,0.5173121690750122
1772883357265439000,5.32743896484375,-0.4306955337524414,-0.28274011611938477,0.6041668057441711
1772883357282058500,5.34405859375,-0.3681221008300781,-0.19794988632202148,0.6631658673286438
1772883357298682000,5.36068212890625,-0.4049549102783203,-0.08316469192504883,0.7116418480873108
1772883357315272000,5.37727197265625,-0.6204266548156738,-0.025456905364990234,0.7062683701515198
1772883357331874600,5.39387451171875,-0.8234128952026367,0.033382415771484375,0.6449931859970093
1772883357348479500,5.4104794921875,-0.7207317352294922,0.06066179275512695,0.72257399559021
1772883357365089300,5.42708935546875,-0.41078853607177734,0.08039045333862305,0.7443394660949707
1772883357381691000,5.44369091796875,-0.31065940856933594,0.0012021064758300781,0.697346031665802
1772883357398280200,5.4602802734375,-0.14229106903076172,-0.10374212265014648,0.7513144016265869
1772883357414883300,5.47688330078125,0.2786684036254883,-0.17595815658569336,0.8780038356781006
1772883357431493000,5.4934931640625,0.7476234436035156,-0.23309946060180664,0.8269296884536743
1772883357448098000,5.51009814453125,0.977046012878418,-0.16518163681030273,0.5979810357093811
1772883357464699100,5.52669921875,0.8830471038818359,-0.16321945190429688,0.47395947575569153
1772883357481309200,5.54330908203125,0.816279411315918,0.0467076301574707,0.3480691909790039
1772883357497911300,5.559911376953125,0.6444225311279297,0.31843996047973633,0.5206122398376465
1772883357514523400,5.5765234375,0.6576042175292969,0.43784046173095703,0.9188576936721802
1772883357531125500,5.59312548828125,0.9988183975219727,0.2755913734436035,1.3632495403289795
1772883357547730700,5.609730712890625,1.7954320907592773,-0.18203258514404297,1.6555514335632324
1772883357564335900,5.6263359375,2.7229204177856445,-0.8420743942260742,1.6517465114593506
1772883357580941600,5.642941650390625,3.1918134689331055,-1.4489936828613281,1.4291529655456543
1772883357597544000,5.6595439453125,3.041769027709961,-1.9182329177856445,1.0486280918121338
1772883357614172700,5.676172607421875,2.3606767654418945,-2.23305082321167,0.7210453152656555
1772883357630771700,5.692771728515625,1.4309301376342773,-2.3061773777008057,0.3833267390727997
1772883357647361300,5.709361328125,0.3324623107910156,-2.148803234100342,0.17942145466804504
1772883357663965400,5.72596533203125,-0.7396726608276367,-1.823944330215454,0.11988791823387146
1772883357680587800,5.742587890625,-1.276113510131836,-1.517552375793457,0.06462907791137695
1772883357697190400,5.7591904296875,-1.2996940612792969,-1.419255256652832,-0.12216448783874512
1772883357713801500,5.775801513671875,-1.0842108726501465,-1.42557954788208,-0.39333415031433105
1772883357730404000,5.792404052734375,-0.728121280670166,-1.4372997283935547,-0.5515084862709045
1772883357747006700,5.8090068359375,-0.49646711349487305,-1.443068504333496,-0.6153181195259094
1772883357763616800,5.82561669921875,-0.41461944580078125,-1.445633888244629,-0.6403152942657471
1772883357780220000,5.842219970703125,-0.39479732513427734,-1.4569592475891113,-0.7299374938011169
1772883357796825900,5.858825927734375,-0.35650062561035156,-1.472252368927002,-0.711466908454895
1772883357813431000,5.87543115234375,0.04926872253417969,-1.537684440612793,-0.6015989780426025
1772883357830036000,5.892035888671875,0.6224737167358398,-1.623748779296875,-0.5458052158355713
1772883357846625000,5.908625,0.9219064712524414,-1.6649088859558105,-0.534376859664917
1772883357863230200,5.925230224609375,0.7056884765625,-1.541959285736084,-0.5603749752044678
1772883357879852300,5.941852294921875,0.2087392807006836,-1.3443670272827148,-0.5045467615127563
1772883357896454100,5.9584541015625,-0.18599987030029297,-1.1368408203125,-0.3223158121109009
1772883357913067500,5.975067626953125,-0.3032875061035156,-0.9532122611999512,-0.0020171403884887695
1772883357929668400,5.99166845703125,-0.101104736328125,-0.8573002815246582,0.3683377802371979
1772883357946277600,6.008277587890625,0.2064990997314453,-0.8027591705322266,0.6564559936523438
1772883357962862600,6.024862548828125,0.4940013885498047,-0.7687578201293945,0.863335132598877
1772883357979467800,6.0414677734375,0.6251659393310547,-0.6882073879241943,0.9512515068054199
1772883357996073500,6.058073486328125,0.5293283462524414,-0.5254149436950684,1.0459073781967163
1772883358012685000,6.07468505859375,0.38066768646240234,-0.27599382400512695,1.2330522537231445
1772883358029287200,6.091287109375,0.30500221252441406,0.012025833129882812,1.4576685428619385
1772883358045902600,6.107902587890625,0.3385190963745117,0.23230552673339844,1.6569266319274902
1772883358062487000,6.124487060546875,0.520359992980957,0.3613591194152832,1.7872909307479858
1772883358079103200,6.141103271484375,0.7826032638549805,0.4535646438598633,1.9090440273284912
1772883358095708200,6.157708251953125,1.162928581237793,0.4678645133972168,2.0249319076538086
1772883358112332300,6.174332275390625,1.5761299133300781,0.3949704170227051,2.1149253845214844
1772883358128934000,6.190933837890625,1.888167381286621,0.2794938087463379,2.2084944248199463
1772883358145560800,6.207560791015625,2.2027969360351562,0.1863870620727539,2.2354276180267334
1772883358162127600,6.224127685546875,2.360729217529297,0.08250808715820312,2.137012004852295
1772883358178749200,6.240749267578125,2.3154258728027344,-0.026392459869384766,1.8733158111572266
1772883358195347000,6.257346923828125,2.34531307220459,-0.18652009963989258,1.515578269958496
1772883358211968800,6.27396875,2.1891298294067383,-0.3835005760192871,1.1796684265136719
1772883358228565500,6.2905654296875,1.7972021102905273,-0.46716976165771484,0.9275879859924316
1772883358245146000,6.30714599609375,1.250432014465332,-0.68634033203125,1.2916783094406128
1772883358261751300,6.323751220703125,0.9664182662963867,-1.039940357208252,1.8389248847961426
1772883358278381600,6.340381591796875,0.8832769393920898,-1.4433271884918213,1.9042664766311646
1772883358294985500,6.3569853515625,0.8789491653442383,-1.962460994720459,1.696878433227539
1772883358311595000,6.373594970703125,1.127847671508789,-2.384181022644043,1.3802093267440796
1772883358328198000,6.390197998046875,1.0702390670776367,-2.619882583618164,1.1455720663070679
1772883358344803800,6.406803955078125,0.6582517623901367,-2.658263921737671,1.1083247661590576
1772883358361406200,6.42340625,0.2131052017211914,-2.525057315826416,1.0682103633880615
1772883358378014000,6.440013916015625,0.09881210327148438,-2.3844728469848633,0.9762597680091858
1772883358394619600,6.45661962890625,0.09946537017822266,-2.3220903873443604,1.0654850006103516
1772883358411225600,6.4732255859375,-0.25539684295654297,-2.1341686248779297,1.387417197227478
1772883358427830300,6.489830322265625,-0.6359710693359375,-1.8150911331176758,1.6110763549804688
1772883358444436000,6.50643603515625,-0.6045422554016113,-1.5642709732055664,1.6103276014328003
1772883358461040400,6.523040283203125,-0.4061307907104492,-1.495255947113037,1.6171150207519531
1772883358477618000,6.539617919921875,-0.2733726501464844,-1.466538906097412,1.6066076755523682
1772883358494241800,6.55624169921875,-0.15754413604736328,-1.4509923458099365,1.421747088432312
1772883358510844000,6.572843994140625,0.06045722961425781,-1.466080665588379,1.130991816520691
1772883358527439400,6.589439453125,0.2905759811401367,-1.5321955680847168,0.7841329574584961
1772883358544054500,6.606054443359375,0.3484640121459961,-1.5271830558776855,0.47484490275382996
1772883358560660000,6.622659912109375,0.1747140884399414,-1.3303313255310059,0.3171364665031433
1772883358577265400,6.639265380859375,-0.15624618530273438,-1.0270586013793945,0.2578819990158081
1772883358593866000,6.655865966796875,-0.532935619354248,-0.7615933418273926,0.27118802070617676
1772883358610494700,6.67249462890625,-0.8945775032043457,-0.4868764877319336,0.30064716935157776
1772883358627095600,6.689095458984375,-0.7870893478393555,-0.31250810623168945,0.3025935888290405
1772883358643700700,6.70570068359375,-0.45635366439819336,-0.2587571144104004,0.31141436100006104
1772883358660305700,6.7223056640625,-0.13387107849121094,-0.290130615234375,0.3916926085948944
1772883358676911600,6.73891162109375,0.35565185546875,-0.2960786819458008,0.438382625579834
1772883358693517000,6.75551708984375,0.4850788116455078,-0.30187559127807617,0.4107551574707031
1772883358710122200,6.772122314453125,0.11430835723876953,-0.25446271896362305,0.35639339685440063
1772883358726727700,6.788727783203125,-0.4219980239868164,-0.11908245086669922,0.3203122019767761
1772883358743332900,6.805332763671875,-0.6574082374572754,0.05285358428955078,0.20918986201286316
1772883358759942000,6.82194189453125,-0.7719173431396484,0.17786407470703125,0.04929673671722412
1772883358776540200,6.8385400390625,-0.6720399856567383,0.32448673248291016,-0.05644136667251587
1772883358793146400,6.855146484375,-0.5887966156005859,0.40667247772216797,-0.03119128942489624
1772883358809758200,6.87175830078125,-0.5264897346496582,0.4358820915222168,-0.026728332042694092
1772883358826360300,6.8883603515625,-0.5252361297607422,0.46387624740600586,-0.04051154851913452
1772883358842965500,6.904965576171875,-0.47544193267822266,0.4659581184387207,0.012290716171264648
1772883358859567000,6.921567138671875,-0.0837087631225586,0.3377542495727539,0.154240220785141
1772883358876180000,6.938179931640625,0.4252643585205078,0.21283578872680664,0.1512857973575592
1772883358892781800,6.95478173828125,0.9144058227539062,0.23018264770507812,0.03904789686203003
1772883358909387300,6.97138720703125,1.1359319686889648,0.22130393981933594,0.10371071100234985
1772883358925992000,6.987991943359375,1.1190109252929688,0.4580497741699219,0.03183639049530029
1772883358942597600,7.00459765625,0.8916339874267578,0.6962757110595703,0.03678593039512634
1772883358959186000,7.02118603515625,0.763092041015625,0.6982455253601074,0.14387443661689758
1772883358975794700,7.037794677734375,0.7481327056884766,0.5850405693054199,0.3939644992351532
1772883358992397600,7.0543974609375,1.3849773406982422,0.3224201202392578,0.8346071243286133
1772883359009008400,7.07100830078125,2.497591018676758,-0.14904499053955078,1.1172187328338623
1772883359025610800,7.08761083984375,3.2246551513671875,-0.8373346328735352,1.214123010635376
1772883359042216400,7.104216552734375,3.43233585357666,-1.4366323947906494,1.1494899988174438
1772883359058819000,7.120819091796875,2.9208993911743164,-1.8126535415649414,0.985894501209259
1772883359075430000,7.137429931640625,2.093517303466797,-1.945068359375,0.7552134990692139
1772883359092048400,7.15404833984375,1.1421499252319336,-1.8639261722564697,0.507397472858429
1772883359108652300,7.17065234375,0.27176475524902344,-1.685556173324585,0.325747013092041
1772883359125257200,7.18725732421875,-0.367279052734375,-1.5652401447296143,0.26584121584892273
1772883359141862100,7.203862060546875,-0.6571893692016602,-1.4765357971191406,0.25852853059768677
1772883359158463500,7.22046337890625,-0.5562596321105957,-1.4560303688049316,0.44219598174095154
1772883359175057400,7.237057373046875,-0.13288211822509766,-1.4257631301879883,0.4975301921367645
1772883359191678000,7.253677978515625,0.051932334899902344,-1.437985897064209,0.48848584294319153
1772883359208288000,7.2702880859375,-0.0382843017578125,-1.426398754119873,0.4548443555831909
1772883359224889600,7.2868896484375,-0.01586771011352539,-1.429490089416504,0.32444918155670166
1772883359241494500,7.30349462890625,0.08344125747680664,-1.4521865844726562,0.16292908787727356
1772883359258101000,7.32010107421875,0.34552907943725586,-1.5073108673095703,0.14243465662002563
1772883359274698500,7.336698486328125,0.5245752334594727,-1.5306625366210938,0.2627067565917969
1772883359291314700,7.353314697265625,0.4733095169067383,-1.5047836303710938,0.25244420766830444
1772883359307918300,7.36991845703125,0.17652559280395508,-1.4782748222351074,0.10270720720291138
1772883359324521500,7.386521484375,0.04836845397949219,-1.4473838806152344,-0.1757325530052185
1772883359341127200,7.403127197265625,0.028086185455322266,-1.4825472831726074,-0.39172664284706116
1772883359357728300,7.419728271484375,-0.11708831787109375,-1.4732213020324707,-0.4527542293071747
1772883359374337500,7.436337646484375,-0.2282567024230957,-1.3134069442749023,-0.16274964809417725
1772883359390943500,7.452943603515625,-0.23401451110839844,-1.1018362045288086,0.25990182161331177
1772883359407553000,7.469552978515625,-0.06813716888427734,-0.9922275543212891,0.6079385280609131
1772883359424153900,7.48615380859375,0.16428470611572266,-0.9544453620910645,0.641736626625061
1772883359440755200,7.502755126953125,0.21150875091552734,-0.9592585563659668,0.4504404067993164
1772883359457347300,7.519347412109375,-0.04481315612792969,-0.8960247039794922,0.36095190048217773
1772883359473959200,7.535959228515625,-0.4665231704711914,-0.6343588829040527,0.4391842484474182
1772883359490560800,7.552560791015625,-0.801633358001709,-0.30466175079345703,0.6779193878173828
1772883359507170600,7.569170654296875,-0.8865365982055664,-0.005459785461425781,0.8508788347244263
1772883359523772400,7.5857724609375,-0.6270666122436523,0.1722426414489746,1.0023092031478882
1772883359540378000,7.602378173828125,-0.1977548599243164,0.277249813079834,1.1132347583770752
1772883359556983600,7.618983642578125,0.09400129318237305,0.3380279541015625,1.2222788333892822
1772883359573586000,7.6355859375,0.009187698364257812,0.5164780616760254,1.273481011390686
1772883359590211800,7.6522119140625,0.11779928207397461,0.5948090553283691,1.2652982473373413
1772883359606812200,7.668812255859375,0.816314697265625,0.4878826141357422,1.2024636268615723
1772883359623423200,7.68542333984375,1.6325693130493164,0.3126678466796875,1.0930598974227905
1772883359640020200,7.702020263671875,2.2156291007995605,0.21822690963745117,0.913064181804657
1772883359656632800,7.7186328125,2.4217724800109863,0.26270294189453125,0.897997260093689
1772883359673222400,7.735222412109375,2.0658884048461914,0.4583740234375,0.9783248901367188
1772883359689837800,7.751837890625,1.4945149421691895,0.7018632888793945,0.9974087476730347
1772883359706445800,7.76844580078125,1.0447230339050293,0.8124337196350098,0.8691050410270691
1772883359723051000,7.785051025390625,0.8615617752075195,0.6590390205383301,0.8028339147567749
1772883359739652600,7.801652587890625,0.7608575820922852,0.18804407119750977,0.7767082452774048
1772883359756262400,7.818262451171875,0.7947397232055664,-0.37494850158691406,0.8644940853118896
1772883359772843300,7.83484326171875,0.6828961372375488,-0.8975248336791992,1.0632262229919434
1772883359789473000,7.85147314453125,0.5745754241943359,-1.3614649772644043,1.1442301273345947
1772883359806078200,7.868078125,0.48133420944213867,-1.731381893157959,1.1466038227081299
1772883359822683600,7.88468359375,0.2972731590270996,-1.9526984691619873,1.0052298307418823
1772883359839288300,7.901288330078125,0.08681106567382812,-2.076305627822876,0.8167745471000671
1772883359855894300,7.917894287109375,0.048900604248046875,-2.0160155296325684,0.8043670654296875
1772883359872499500,7.93449951171875,0.1941509246826172,-1.8048853874206543,0.8730722665786743
1772883359889105000,7.95110498046875,0.22190046310424805,-1.6050047874450684,0.9660547375679016
1772883359905710600,7.967710693359375,-0.08225774765014648,-1.2316856384277344,1.1971378326416016
1772883359922315800,7.984315673828125,-0.2404770851135254,-0.8891510963439941,1.4688739776611328
1772883359938900700,8.000900634765625,0.005596160888671875,-0.7744364738464355,1.6453930139541626
1772883359955516200,8.01751611328125,0.3647580146789551,-0.7883505821228027,1.6384565830230713
1772883359972118300,8.0341181640625,0.6044602394104004,-0.8418493270874023,1.508220911026001
1772883359988723700,8.0507236328125,0.6691603660583496,-0.9035220146179199,1.386946678161621
1772883360005329200,8.0673291015625,0.4440574645996094,-0.9737887382507324,1.2358351945877075
1772883360021934600,8.0839345703125,0.10887813568115234,-1.0349817276000977,1.069713830947876
1772883360038539500,8.10053955078125,0.06088447570800781,-1.0373549461364746,0.9159799814224243
1772883360055145200,8.117145263671874,0.10277032852172852,-1.0562963485717773,0.7046310901641846
1772883360071754000,8.13375390625,-0.05138397216796875,-1.1053738594055176,0.3761780858039856
1772883360088369700,8.15036962890625,-0.4445948600769043,-1.0892210006713867,0.11323142051696777
1772883360104975000,8.16697509765625,-0.8846383094787598,-0.9415426254272461,0.031214237213134766
1772883360121581000,8.1835810546875,-1.0342903137207031,-0.765714168548584,0.12525922060012817
1772883360138212000,8.200212158203126,-0.9491453170776367,-0.559596061706543,0.2663687467575073
1772883360154793700,8.216793701171875,-0.9793505668640137,-0.3450202941894531,0.4802001714706421
1772883360171394000,8.23339404296875,-0.8607110977172852,-0.14040327072143555,0.7027038335800171
1772883360188002000,8.250001953125,-0.7082080841064453,0.008824348449707031,0.8216406106948853
1772883360204607700,8.266607666015625,-0.4243917465209961,0.04001045227050781,0.8298232555389404
1772883360221212400,8.28321240234375,-0.41511964797973633,0.03643941879272461,0.7062184810638428
1772883360237818000,8.299818115234375,-0.6157197952270508,0.09802103042602539,0.5974677205085754
1772883360254421800,8.316421875,-0.7843446731567383,0.22543668746948242,0.6549077033996582
1772883360271030800,8.33303076171875,-0.8948616981506348,0.335507869720459,0.7862017750740051
1772883360287634700,8.349634765625,-0.9866280555725098,0.48347043991088867,0.7801843285560608
1772883360304240000,8.366240234375,-0.7065591812133789,0.5196304321289062,0.6199443936347961
1772883360320834300,8.382834228515625,-0.19208288192749023,0.37059926986694336,0.34268301725387573
1772883360337450200,8.3994501953125,0.19839954376220703,0.24739646911621094,0.1317257285118103
1772883360354057200,8.41605712890625,0.36063098907470703,0.25339508056640625,0.0732073187828064
1772883360370655700,8.43265576171875,0.3961453437805176,0.3575425148010254,0.29445216059684753
1772883360387270700,8.449270751953126,0.7139863967895508,0.5721588134765625,0.5029200315475464
1772883360403872000,8.4658720703125,1.195073127746582,0.8513832092285156,0.4417780637741089
1772883360420478000,8.48247802734375,1.4129810333251953,0.952634334564209,0.2991691827774048
1772883360437065500,8.4990654296875,1.440732479095459,1.182706356048584,0.10017913579940796
1772883360453671400,8.51567138671875,1.3320283889770508,1.319948673248291,-0.03947412967681885
1772883360470283500,8.532283447265625,1.1452031135559082,1.2268590927124023,0.14725834131240845
1772883360486885400,8.548885498046875,1.4692907333374023,0.9363932609558105,0.6104236245155334
1772883360503490600,8.565490478515626,2.04677677154541,0.36618471145629883,1.0505447387695312
1772883360520096300,8.58209619140625,2.3504772186279297,-0.34174680709838867,1.2337257862091064
1772883360536701400,8.598701416015626,2.255801200866699,-1.0295586585998535,1.0774154663085938
1772883360553303800,8.6153037109375,1.9017515182495117,-1.5921788215637207,0.6598522663116455
1772883360569932500,8.6319326171875,1.496114730834961,-2.048440456390381,0.030296742916107178
1772883360586531000,8.648531005859375,1.0928659439086914,-2.2894721031188965,-0.5295403003692627
1772883360603137000,8.665136962890625,0.6018810272216797,-2.1609115600585938,-0.8369918465614319
1772883360619742200,8.6817421875,0.07068920135498047,-1.8725686073303223,-0.7168400883674622
1772883360636330500,8.69833056640625,-0.3051466941833496,-1.5633535385131836,-0.3492106795310974
1772883360652949000,8.714948974609374,-0.38056182861328125,-1.3847413063049316,0.022944986820220947
1772883360669562600,8.731562744140625,0.0027379989624023438,-1.431239128112793,0.3060022294521332
1772883360686163700,8.748163818359375,0.49419260025024414,-1.6055097579956055,0.499849796295166
1772883360702769400,8.764769287109376,0.5872659683227539,-1.6195158958435059,0.5147083401679993
1772883360719374300,8.781374267578125,0.4098019599914551,-1.5624470710754395,0.3425767719745636
1772883360735980000,8.79797998046875,0.4406003952026367,-1.5391416549682617,0.18311849236488342
1772883360752581000,8.8145810546875,0.5164380073547363,-1.5218400955200195,0.37927040457725525
1772883360769194800,8.83119482421875,0.7387776374816895,-1.5060172080993652,0.7311061024665833
1772883360785796600,8.847796630859374,0.6783666610717773,-1.4071555137634277,0.8682448863983154
1772883360802401300,8.8644013671875,0.31605052947998047,-1.2391815185546875,0.8248836994171143
1772883360819007000,8.881007080078126,0.0027441978454589844,-1.1682744026184082,0.6206437945365906
1772883360835612400,8.8976123046875,-0.2966623306274414,-1.1057977676391602,0.5397899150848389
1772883360852217300,8.91421728515625,-0.7125387191772461,-0.9750752449035645,0.5669589638710022
1772883360868823300,8.9308232421875,-0.9582533836364746,-0.8319458961486816,0.6367266178131104
1772883360885424600,8.947424560546875,-0.8325395584106445,-0.9166827201843262,0.6627424955368042
1772883360902037800,8.964037841796875,-0.5092477798461914,-1.0653910636901855,0.6239705085754395
1772883360918622200,8.980622314453125,-0.1909337043762207,-1.0254926681518555,0.6598943471908569
1772883360935231000,8.99723095703125,0.1348400115966797,-0.9190177917480469,0.7513645887374878
1772883360951836200,9.013836181640626,0.022296905517578125,-0.6441268920898438,0.7239431142807007
1772883360968443600,9.030443603515625,-0.3556509017944336,-0.4147000312805176,0.47768473625183105
1772883360985031700,9.04703173828125,-0.8395853042602539,-0.2706480026245117,0.26009106636047363
1772883361001652500,9.063652587890624,-1.0888752937316895,-0.06959295272827148,0.27160409092903137
1772883361018254600,9.080254638671875,-0.8268499374389648,0.20225811004638672,0.5469279289245605
1772883361034866700,9.09686669921875,-0.4760751724243164,0.37800121307373047,0.7807103395462036
1772883361051465200,9.11346533203125,0.04477691650390625,0.37763404846191406,0.920413076877594
1772883361068094500,9.130094482421875,0.6111087799072266,0.11201047897338867,0.7303957939147949
1772883361084693200,9.146693359375,0.30566835403442383,0.19789791107177734,0.4283866286277771
1772883361101298700,9.163298583984375,-0.007298469543457031,0.2793707847595215,0.16481569409370422
1772883361117899500,9.1798994140625,-0.07451343536376953,0.3143935203552246,0.3775891661643982
1772883361134509300,9.19650927734375,0.3429269790649414,0.5462746620178223,0.8497209548950195
