time,seconds_elapsed,z,y,x
1772883297551863600,0.173863525390625,8.703892707824707,2.4765713214874268,-0.388235479593277
1772883297568464400,0.19046435546875,8.897112846374512,2.2893331050872803,-0.7010970115661621
1772883297585071000,0.207071044921875,9.106484413146973,2.2791635990142822,-0.898504912853241
1772883297601676000,0.223676025390625,9.245866775512695,2.2187447547912598,-0.9571290612220764
1772883297618300700,0.24030078125,9.182456970214844,2.3605196475982666,-0.7836494445800781
1772883297634895400,0.256895263671875,8.994620323181152,2.448455810546875,-0.719641387462616
1772883297651502800,0.2735029296875,8.795417785644531,2.6422743797302246,-0.631106972694397
1772883297668108800,0.29010888671875,8.612964630126953,2.9593234062194824,-0.45583271980285645
1772883297684696600,0.306696533203125,8.770891189575195,3.0448668003082275,-0.2069791555404663
1772883297701318700,0.323318603515625,8.704490661621094,3.090928554534912,-0.03888336941599846
1772883297717924900,0.3399248046875,8.529216766357422,3.1998021602630615,-0.1423729509115219
1772883297734529300,0.356529296875,8.476573944091797,3.2416765689849854,-0.050847481936216354
1772883297751136000,0.373135986328125,8.61894702911377,3.3104701042175293,-0.05623133108019829
1772883297767739600,0.38973974609375,8.58484935760498,3.3104701042175293,-0.1657029688358307
1772883297784346000,0.40634619140625,8.366504669189453,3.4235310554504395,-0.2356930375099182
1772883297800948200,0.4229482421875,8.423932075500488,3.4713873863220215,-0.1256231814622879
1772883297817555000,0.439554931640625,8.653642654418945,3.4965121746063232,0.007178467698395252
1772883297834167300,0.456167236328125,8.748757362365723,3.597010612487793,0.16510476171970367
1772883297850764000,0.472763916015625,8.876175880432129,3.7405800819396973,0.34277185797691345
1772883297867373800,0.489373779296875,9.065208435058594,3.678964853286743,0.4989035129547119
1772883297883974000,0.505973876953125,9.398408889770508,3.8015968799591064,0.6125625967979431
1772883297900579300,0.522579345703125,9.56471061706543,3.879363775253296,0.6652047038078308
1772883297917181400,0.539181396484375,9.681360244750977,4.034298896789551,0.6131607890129089
1772883297933793000,0.55579296875,9.697511672973633,4.163511276245117,0.5754738450050354
1772883297950398700,0.572398681640625,9.57607650756836,4.267599105834961,0.605384111404419
1772883297967002400,0.58900244140625,9.437292098999023,4.322035789489746,0.7310073375701904
1772883297983602700,0.605602783203125,9.833903312683105,4.171288013458252,0.9810572862625122
1772883298000210200,0.622210205078125,10.452447891235352,3.8949170112609863,1.1001001596450806
1772883298016798000,0.6387978515625,10.682756423950195,3.6059837341308594,1.0109676122665405
1772883298033396000,0.65539599609375,10.593026161193848,3.434896945953369,0.7752745151519775
1772883298050011400,0.672011474609375,10.251450538635254,3.682554006576538,0.4731806814670563
1772883298066617300,0.688617431640625,9.466604232788086,3.55214524269104,0.7782655358314514
1772883298083224300,0.705224365234375,9.262018203735352,3.90568470954895,0.5569294691085815
1772883298099825400,0.721825439453125,9.244071960449219,4.027120590209961,0.3284149169921875
1772883298116432600,0.7384326171875,8.941978454589844,3.8877387046813965,0.5874379873275757
1772883298133055700,0.7550556640625,8.86660385131836,3.6921253204345703,0.9451649188995361
1772883298149657900,0.771657958984375,8.887541770935059,3.403790235519409,1.1150553226470947
1772883298166259200,0.78825927734375,9.015557289123535,2.937189817428589,0.9960124492645264
1772883298182868000,0.804867919921875,9.124430656433105,2.3856441974639893,0.7184450030326843
1772883298199469600,0.821469482421875,9.251849174499512,1.9387845993041992,0.5760720372200012
1772883298216080600,0.83808056640625,9.367302894592285,1.5822539329528809,0.3858426511287689
1772883298232680400,0.854680419921875,9.511469841003418,1.3495519161224365,-0.20458634197711945
1772883298249289500,0.87128955078125,9.587442398071289,1.262213945388794,-0.5359922647476196
1772883298265888000,0.887887939453125,9.712467193603516,1.394417405128479,-0.7603194117546082
1772883298282495700,0.904495849609375,9.593423843383789,1.6839489936828613,-0.6137589812278748
1772883298299100700,0.9211005859375,9.361918449401855,2.203789710998535,-0.11126625537872314
1772883298315708000,0.9377080078125,9.076574325561523,2.5782663822174072,0.4953143000602722
1772883298332311600,0.9543115234375,8.8109712600708,2.8725836277008057,1.0205388069152832
1772883298348916200,0.970916259765625,8.824131965637207,3.0382864475250244,1.2849457263946533
1772883298365522400,0.9875224609375,9.141180992126465,2.974278450012207,1.34476637840271
1772883298382128600,1.004128662109375,9.449256896972656,2.8725836277008057,1.332802176475525
1772883298398730500,1.02073046875,9.631709098815918,2.813361167907715,1.2113664150238037
1772883298415338000,1.037337890625,9.45763111114502,2.799602508544922,0.8679963946342468
1772883298431941600,1.053941650390625,9.028717994689941,2.8319056034088135,0.4785645306110382
1772883298448542500,1.07054248046875,8.483752250671387,2.89172625541687,0.061016976833343506
1772883298465170400,1.08717041015625,8.017151832580566,2.964707374572754,-0.1459621787071228
1772883298481757000,1.1037568359375,7.853842258453369,2.9587252140045166,-0.2602194547653198
1772883298498362400,1.1203623046875,8.036892890930176,2.8701908588409424,-0.2709871530532837
1772883298514956500,1.13695654296875,8.444869041442871,2.812762975692749,-0.29790642857551575
1772883298531558000,1.153557861328125,8.851649284362793,2.8211379051208496,-0.21415762603282928
1772883298548166000,1.170165771484375,9.07537841796875,2.8809585571289062,-0.2147558331489563
1772883298564769500,1.18676953125,8.974281311035156,2.9138598442077637,-0.2907279431819916
1772883298581379600,1.203379638671875,8.913264274597168,3.053241729736328,-0.4420739710330963
1772883298597980200,1.219980224609375,9.084351539611816,3.0795626640319824,-0.4666004180908203
1772883298614584800,1.236584716796875,9.049057006835938,3.1513473987579346,-0.5569294691085815
1772883298631206100,1.2532060546875,8.908478736877441,3.250051259994507,-0.5318048596382141
1772883298647808300,1.269808349609375,9.170493125915527,3.3577284812927246,-0.45583271980285645
1772883298664403500,1.286403564453125,9.497711181640625,3.284149169921875,-0.3768695592880249
1772883298681017600,1.303017578125,9.752547264099121,3.243471145629883,-0.3355933725833893
1772883298697623600,1.31962353515625,9.992427825927734,3.207578659057617,-0.29431718587875366
1772883298714231800,1.336231689453125,10.385448455810547,3.1920254230499268,-0.2727817893028259
1772883298730815700,1.352815673828125,10.614561080932617,3.4672000408172607,-0.25722843408584595
1772883298747458600,1.36945849609375,10.50389289855957,3.5467612743377686,-0.17946170270442963
1772883298764045600,1.386045654296875,10.473982810974121,3.617349624633789,-0.07836493849754333
1772883298780648000,1.40264794921875,10.701300621032715,3.542573928833008,0.053240302950143814
1772883298797253400,1.41925341796875,11.291131973266602,3.256033420562744,0.11964113265275955
1772883298813859000,1.435859130859375,11.81157112121582,2.816950559616089,0.12801600992679596
1772883298830449000,1.452448974609375,11.906685829162598,2.358126640319824,0.16689938306808472
1772883298847073500,1.469073486328125,11.450254440307617,1.9698911905288696,0.22911277413368225
1772883298863673900,1.485673828125,10.98185920715332,1.7060825824737549,0.27756741642951965
1772883298880284000,1.502283935546875,10.85145092010498,1.4757733345031738,0.1950150430202484
1772883298896862200,1.5188623046875,11.016555786132812,1.2873386144638062,0.001794616924598813
1772883298913489000,1.535489013671875,10.718648910522461,1.0600204467773438,-0.08434699475765228
1772883298930093300,1.55209326171875,9.79801082611084,1.211964726448059,0.046061836183071136
1772883298946700000,1.568699951171875,8.688937187194824,1.6683956384658813,0.1178465187549591
1772883298963304400,1.585304443359375,8.066205024719238,2.0333011150360107,0.28175488114356995
1772883298979910400,1.601910400390625,7.795217990875244,2.2815563678741455,0.582054078578949
1772883298996497400,1.618497314453125,8.057231903076172,2.3748764991760254,0.6622136831283569
1772883299013108500,1.6351083984375,8.666803359985352,2.276172637939453,0.6532405614852905
1772883299029710800,1.6517109375,8.97966480255127,2.427518606185913,0.6813562512397766
1772883299046317000,1.668317138671875,8.803792953491211,2.6638097763061523,0.7848458290100098
1772883299062922800,1.6849228515625,8.455039024353027,2.908475875854492,0.836291491985321
1772883299079514600,1.7015146484375,8.508278846740723,3.026322364807129,0.5497509837150574
1772883299096132400,1.71813232421875,8.755936622619629,2.9976086616516113,0.3044866919517517
1772883299112751600,1.734751708984375,9.143573760986328,2.9318058490753174,0.09152546525001526
1772883299129365200,1.751365234375,9.586843490600586,2.7457640171051025,0.0011964113218709826
1772883299145962000,1.7679619140625,9.745966911315918,2.662015199661255,-0.03349951654672623
1772883299162564600,1.784564697265625,9.761520385742188,2.6560330390930176,0.07597211748361588
1772883299179169500,1.80116943359375,9.798608779907227,2.7188446521759033,0.07657032459974289
1772883299195777000,1.817777099609375,9.79801082611084,2.7146573066711426,0.02871387079358101
1772883299212386300,1.83438623046875,9.963115692138672,2.6572296619415283,0.22791635990142822
1772883299228970800,1.850970703125,9.924830436706543,2.764308452606201,0.5162515044212341
1772883299245591600,1.867591552734375,9.497711181640625,2.8689942359924316,0.6436693072319031
1772883299262191600,1.884191650390625,8.922237396240234,2.957528829574585,0.7046862840652466
1772883299278804200,1.90080419921875,8.423932075500488,2.9718856811523438,0.6406782865524292
1772883299295403300,1.9174033203125,7.984251022338867,3.173480987548828,0.6017948985099792
1772883299312011000,1.934010986328125,7.626523971557617,3.3469607830047607,0.5473581552505493
1772883299328602000,1.95060205078125,7.373483180999756,3.569493293762207,0.5030909776687622
1772883299345224200,1.96722412109375,7.290332317352295,3.84765887260437,0.3236292600631714
1772883299361821000,1.983821044921875,7.406982421875,3.941577196121216,0.11306086927652359
1772883299378473000,2.000472900390625,7.537989616394043,4.086941242218018,0.061016976833343506
1772883299395026000,2.01702587890625,7.921439170837402,4.316053867340088,0.10827522724866867
1772883299411641300,2.033641357421875,8.471190452575684,4.420739650726318,0.3164508044719696
1772883299428233200,2.050233154296875,8.898907661437988,4.338785648345947,0.36610186100006104
1772883299444852000,2.06685205078125,9.001798629760742,4.191627025604248,0.3068794906139374
1772883299461464800,2.08346484375,9.189635276794434,4.112663745880127,0.2955136001110077
1772883299478063000,2.10006298828125,9.66819953918457,4.0797624588012695,0.2548356056213379
1772883299494651400,2.1166513671875,10.037891387939453,3.989433526992798,0.09870393574237823
1772883299511265000,2.13326513671875,10.158130645751953,4.103092670440674,-0.1495514214038849
1772883299527860000,2.14985986328125,9.814162254333496,4.362115859985352,-0.10767702013254166
1772883299544469500,2.166469482421875,9.22851848602295,4.511667251586914,0.08315058797597885
1772883299561076700,2.18307666015625,9.251849174499512,4.371088981628418,0.3355933725833893
1772883299577680100,2.19968017578125,9.896714210510254,4.0079779624938965,0.5539384484291077
1772883299594284800,2.216284912109375,10.517053604125977,3.3822548389434814,0.6652047038078308
1772883299610905600,2.232905517578125,10.65105152130127,2.843869686126709,0.5796613097190857
1772883299627508200,2.24950830078125,10.41176986694336,2.5501506328582764,0.4253242313861847
1772883299644114400,2.266114501953125,9.957731246948242,2.4843480587005615,0.31764721870422363
1772883299660715300,2.28271533203125,9.395418167114258,2.555534601211548,0.2350948303937912
1772883299677324300,2.29932421875,9.041878700256348,2.5322046279907227,0.23210379481315613
1772883299693928000,2.315927978515625,9.136993408203125,2.585444927215576,0.31345975399017334
1772883299710532400,2.332532470703125,9.441479682922363,2.7457640171051025,0.4468596279621124
1772883299727123200,2.349123291015625,9.545567512512207,2.9210381507873535,0.7968099117279053
1772883299743743200,2.3657431640625,9.32303524017334,3.1549365520477295,1.1341979503631592
1772883299760348400,2.382348388671875,8.798408508300781,3.3308091163635254,1.1437692642211914
1772883299776954400,2.398954345703125,8.403593063354492,3.4510483741760254,1.1276177167892456
1772883299793558000,2.41555810546875,8.383254051208496,3.518047571182251,1.1377872228622437
1772883299810163200,2.4321630859375,8.949156761169434,3.4199416637420654,1.0139585733413696
1772883299826753800,2.44875390625,9.535398483276367,3.198007345199585,0.8033902049064636
1772883299843378200,2.465378173828125,9.698708534240723,3.0963125228881836,0.6107679605484009
1772883299859979300,2.481979248046875,9.465408325195312,2.994617462158203,0.4342973232269287
1772883299876584000,2.498583984375,8.848658561706543,3.10528564453125,0.15613168478012085
1772883299893189000,2.515189208984375,8.386244773864746,3.212364435195923,-0.07477571070194244
1772883299909793000,2.53179296875,8.086544036865234,3.324826955795288,-0.19142581522464752
1772883299926387000,2.548386962890625,7.978867053985596,3.428914785385132,-0.20937198400497437
1772883299943006000,2.565005859375,8.132007598876953,3.463610887527466,-0.14775680005550385
1772883299959609600,2.581609619140625,8.394619941711426,3.5461630821228027,0.06161518394947052
1772883299976216600,2.598216552734375,8.455636978149414,3.6699917316436768,0.2153540402650833
1772883299992804000,2.61480419921875,8.286943435668945,3.7776687145233154,0.28893333673477173
1772883300009429000,2.631428955078125,8.24147891998291,3.896711587905884,0.2709871530532837
1772883300026017500,2.648017578125,8.373682975769043,3.965505361557007,0.2512463629245758
1772883300042623200,2.664623291015625,8.306683540344238,3.9972102642059326,0.3284149169921875
1772883300059239000,2.681239013671875,8.113463401794434,4.071985721588135,0.2967100143432617
1772883300075832000,2.69783203125,8.069195747375488,4.143172264099121,0.3164508044719696
1772883300092458500,2.71445849609375,8.110472679138184,4.197608947753906,0.19740787148475647
1772883300109055200,2.73105517578125,8.065607070922852,4.2831525802612305,0.15972091257572174
1772883300125645600,2.7476455078125,8.084151268005371,4.322035789489746,0.16510476171970367
1772883300142261500,2.764261474609375,8.285148620605469,4.323830604553223,0.1585244983434677
1772883300158873600,2.78087353515625,8.529814720153809,4.302295207977295,0.20518454909324646
1772883300175477500,2.7974775390625,8.851649284362793,4.284946918487549,0.389431893825531
1772883300192083500,2.81408349609375,9.18843936920166,4.2586259841918945,0.5790630578994751
1772883300208685000,2.83068505859375,9.54915714263916,4.152743816375732,0.5617151260375977
1772883300225271800,2.847271728515625,9.89970588684082,4.226323127746582,0.17766708135604858
1772883300241895000,2.86389501953125,10.023533821105957,4.3788652420043945,-0.17587246000766754
1772883300258502100,2.880502197265625,9.88833999633789,4.444668292999268,-0.19381862878799438
1772883300275106300,2.897106201171875,9.629914283752441,4.695914268493652,-0.22851456701755524
1772883300291695000,2.913695068359375,9.426525115966797,4.874179840087891,-0.0729810893535614
1772883300308306000,2.930305908203125,9.476774215698242,4.871787071228027,0.2709871530532837
1772883300324909000,2.946908935546875,10.182058334350586,4.552345275878906,0.45583271980285645
1772883300341515000,2.963514892578125,11.1104736328125,3.6981074810028076,0.8458628058433533
1772883300358122800,2.980122802734375,11.780464172363281,2.943770170211792,0.9038887619972229
1772883300374725400,2.996725341796875,12.132806777954102,2.1984057426452637,0.6999006271362305
1772883300391345400,3.013345458984375,11.749955177307129,1.781456470489502,0.22073788940906525
1772883300407936000,3.02993603515625,11.065010070800781,1.649253010749817,-0.268594354391098
1772883300424553700,3.0465537109375,10.187442779541016,1.740180253982544,-0.2871387302875519
1772883300441159200,3.0631591796875,9.07119083404541,2.138585329055786,-0.12921242415905
1772883300457763600,3.079763671875,8.207381248474121,2.5256242752075195,-0.07896314561367035
1772883300474369000,3.096369140625,7.812565803527832,2.6835505962371826,0.0011964113218709826
1772883300490961000,3.1129609375,8.033902168273926,2.730808734893799,0.35892340540885925
1772883300507564300,3.129564208984375,8.34138011932373,2.803191661834717,0.6783652305603027
1772883300524170800,3.146170654296875,8.648857116699219,2.734398126602173,0.7190431952476501
1772883300540775000,3.16277490234375,8.928817749023438,2.53399920463562,0.49591249227523804
1772883300557381400,3.17938134765625,9.280562400817871,2.328814744949341,0.2392822653055191
1772883300573986600,3.195986572265625,9.611968994140625,2.190629243850708,0.04486542567610741
1772883300590608100,3.212608154296875,9.731011390686035,2.173879384994507,-0.061016976833343506
1772883300607210200,3.229210205078125,9.534799575805664,2.152942180633545,-0.16091732680797577
1772883300623799000,3.245799072265625,9.164510726928711,2.2540390491485596,-0.12921242415905
1772883300640424000,3.262423828125,8.687142372131348,2.459223508834839,-0.06281159073114395
1772883300657022700,3.279022705078125,8.330612182617188,2.626721143722534,0.01196411345154047
1772883300673622800,3.295622802734375,8.160123825073242,2.806781053543091,0.062213387340307236
1772883300690235400,3.3122353515625,8.254639625549316,2.9114668369293213,0.2063809484243393
1772883300706840600,3.328840576171875,8.47896671295166,2.9802606105804443,0.27696922421455383
1772883300723429400,3.345429443359375,8.650651931762695,3.057429075241089,0.4342973232269287
1772883300740032000,3.362031982421875,8.643473625183105,3.2237303256988525,0.5982056856155396
1772883300756639000,3.378638916015625,8.506484031677246,3.417548894882202,0.7154539823532104
1772883300773247200,3.395247314453125,8.479565620422363,3.5611183643341064,0.6544370055198669
1772883300789870300,3.411870361328125,8.583653450012207,3.5682966709136963,0.47676992416381836
1772883300806471400,3.428471435546875,8.73918628692627,3.648456335067749,0.29012975096702576
1772883300823076600,3.44507666015625,8.822935104370117,3.7405800819396973,0.24227328598499298
1772883300839678700,3.4616787109375,8.642276763916016,3.9672999382019043,0.3601198196411133
1772883300856286000,3.478285888671875,8.654241561889648,4.152743816375732,0.5335994362831116
1772883300872896800,3.494896728515625,8.888737678527832,4.19282341003418,0.6041877269744873
1772883300889496800,3.511496826171875,9.234500885009766,4.105485439300537,0.6059823632240295
1772883300906102000,3.52810205078125,9.770493507385254,3.872185230255127,0.5970092415809631
1772883300922677200,3.54467724609375,10.238289833068848,3.6574294567108154,0.5778666734695435
1772883300939334400,3.56133447265625,10.563714027404785,3.6047873497009277,0.4372883439064026
1772883300955917800,3.577917724609375,10.739585876464844,3.64546537399292,0.364905446767807
1772883300972506000,3.594506103515625,10.59960651397705,3.7393836975097656,0.41874396800994873
1772883300989113900,3.61111376953125,10.371091842651367,3.951746702194214,0.4695914387702942
1772883301005719600,3.627719482421875,10.001998901367188,4.215555191040039,0.4498506486415863
1772883301022324200,3.64432421875,9.520442962646484,4.170690059661865,0.600000262260437
1772883301038928600,3.6609287109375,9.617352485656738,3.7663028240203857,1.0271191596984863
1772883301055521000,3.67752099609375,10.551151275634766,3.0376882553100586,1.2891331911087036
1772883301072163000,3.6941630859375,11.439486503601074,2.372483730316162,1.308275818824768
1772883301088759000,3.710759033203125,11.92044448852539,1.9112670421600342,1.0007981061935425
1772883301105364000,3.727364013671875,11.598609924316406,1.6319050788879395,0.7663014531135559
1772883301121961500,3.74396142578125,10.53799057006836,1.6995022296905518,0.5000999569892883
1772883301138573600,3.760573486328125,9.473184585571289,2.0333011150360107,0.3840480446815491
1772883301155163000,3.777162841796875,8.848658561706543,2.4335005283355713,0.3810569941997528
1772883301171784400,3.793784423828125,8.451449394226074,2.770888566970825,0.672383189201355
1772883301188389000,3.81038916015625,8.256434440612793,3.064009428024292,0.8961120843887329
1772883301204977200,3.82697705078125,8.318049430847168,3.1304101943969727,1.0444670915603638
1772883301221585700,3.843585693359375,8.505288124084473,3.1034910678863525,1.0671988725662231
1772883301238204400,3.860204345703125,8.639883995056152,3.0245277881622314,0.9272187948226929
1772883301254793200,3.876793212890625,8.658429145812988,3.0209386348724365,0.8069794178009033
1772883301271415300,3.893415283203125,8.449654579162598,3.087937593460083,0.550349235534668
1772883301288019500,3.91001953125,8.216354370117188,3.201596736907959,0.34217363595962524
1772883301304625200,3.926625244140625,7.947760581970215,3.3409786224365234,-0.06640082597732544
1772883301321227800,3.943227783203125,7.809575080871582,3.4618160724639893,-0.36610186100006104
1772883301337835000,3.9598349609375,7.627122402191162,3.714258909225464,-0.49710890650749207
1772883301354423600,3.976423583984375,7.455437183380127,3.937389612197876,-0.5138586759567261
1772883301371046000,3.9930458984375,7.502695560455322,4.004388809204102,-0.42711883783340454
1772883301387650300,4.009650390625,7.872386455535889,3.988237142562866,-0.2667997181415558
1772883301404256300,4.02625634765625,8.59322452545166,3.8189449310302734,-0.2626122832298279
1772883301420844000,4.042843994140625,8.940781593322754,3.6640095710754395,-0.21774685382843018
1772883301437465900,4.0594658203125,8.872586250305176,3.7160534858703613,-0.25064817070961
1772883301454059000,4.07605908203125,8.580063819885254,3.7800614833831787,-0.22492532432079315
1772883301470659300,4.092659423828125,8.26540756225586,4.004986763000488,-0.09690931439399719
1772883301487267300,4.109267333984375,8.248658180236816,4.195216178894043,0.062213387340307236
1772883301503873000,4.125873046875,8.396414756774902,4.23948335647583,0.09511470049619675
1772883301520477700,4.142477783203125,8.49990463256836,4.284946918487549,-0.03409772366285324
1772883301537083000,4.159082763671875,8.6967134475708,4.253242015838623,-0.05922235921025276
1772883301553675000,4.175675048828125,8.879166603088379,4.212564468383789,-0.08434699475765228
1772883301570310400,4.192310302734375,8.840283393859863,4.235894203186035,-0.08434699475765228
1772883301586912000,4.208912109375,9.079565048217773,4.252644062042236,-0.04247260093688965
1772883301603494700,4.22549462890625,9.464211463928223,4.1419758796691895,-0.031106693670153618
1772883301620134400,4.242134521484375,9.616155624389648,3.94815731048584,-0.09990034252405167
1772883301636727300,4.258727294921875,9.685547828674316,4.252045631408691,-0.31824541091918945
1772883301653316600,4.275316650390625,9.479764938354492,4.442275047302246,-0.43549370765686035
1772883301669938000,4.29193798828125,9.584450721740723,4.4961137771606445,-0.4307080805301666
1772883301686542600,4.30854248046875,9.705288887023926,4.679164886474609,-0.41575294733047485
1772883301703147800,4.325147705078125,9.448060035705566,4.67078971862793,-0.31405797600746155
1772883301719736300,4.341736328125,9.29731273651123,4.619344234466553,-0.07896314561367035
1772883301736358100,4.358358154296875,9.540184020996094,4.453042984008789,0.03768695518374443
1772883301752969500,4.374969482421875,10.238289833068848,4.005585193634033,0.11665010452270508
1772883301769568800,4.39156884765625,10.503294944763184,3.4947173595428467,0.35054850578308105
1772883301786173400,4.40817333984375,9.318249702453613,2.9629125595092773,0.5784648656845093
1772883301802779000,4.42477880859375,8.442476272583008,2.770888566970825,0.6963114142417908
1772883301819377000,4.441376953125,8.774480819702148,2.5567309856414795,0.4061816334724426
1772883301835979300,4.457979248046875,10.018150329589844,2.2187447547912598,0.03290131315588951
1772883301852582700,4.474582763671875,10.591829299926758,2.11824631690979,-0.32961133122444153
1772883301869199600,4.49119970703125,10.311869621276855,2.2019951343536377,-0.4612165689468384
1772883301885787600,4.50778759765625,9.690333366394043,2.448455810546875,-0.364905446767807
1772883301902409000,4.524408935546875,9.271589279174805,2.648256540298462,-0.1986042857170105
1772883301918997800,4.540997802734375,9.240483283996582,2.8049862384796143,-0.06340979784727097
1772883301935619300,4.557619384765625,9.306883811950684,2.8486554622650146,-0.058624155819416046
1772883301952196400,4.5741962890625,9.437891006469727,2.730808734893799,-0.0891326442360878
1772883301968816400,4.59081640625,9.698708534240723,2.5806591510772705,-0.14895321428775787
1772883301985421000,4.607421142578125,10.121041297912598,2.4436700344085693,-0.36729827523231506
1772883302002018800,4.624018798828125,10.198209762573242,2.3784656524658203,-0.4833501875400543
1772883302018631400,4.64063134765625,9.76989459991455,2.493321180343628,-0.48454657196998596
1772883302035233300,4.6572333984375,9.274580955505371,2.6500511169433594,-0.4331009089946747
1772883302051831000,4.6738310546875,8.749954223632812,2.8450660705566406,-0.3475574851036072
1772883302068463900,4.6904638671875,8.364709854125977,2.9934210777282715,-0.30568310618400574
1772883302085065700,4.707065673828125,8.094321250915527,3.10528564453125,-0.31764721870422363
1772883302101670700,4.723670654296875,8.093722343444824,3.153141975402832,-0.26500511169433594
1772883302118257400,4.74025732421875,8.425128936767578,3.145963668823242,-0.14715859293937683
1772883302134882600,4.756882568359375,8.670990943908691,3.0759735107421875,-0.04366901144385338
1772883302151505200,4.773505126953125,8.723034858703613,3.119044303894043,0.04247260093688965
1772883302168091600,4.790091552734375,8.545368194580078,3.159722328186035,0.048454657196998596
1772883302184682000,4.806681884765625,8.45743179321289,3.259622573852539,0.04007977992296219
1772883302201301500,4.823301513671875,8.571688652038574,3.2991042137145996,0.04426721855998039
1772883302217906700,4.83990673828125,8.755936622619629,3.4067811965942383,0.010767702013254166
1772883302234511600,4.85651171875,8.930013656616211,3.5473594665527344,-0.003589233849197626
1772883302251100200,4.87310009765625,9.07537841796875,3.758526086807251,0.11665010452270508
1772883302267704800,4.889704833984375,8.938986778259277,3.9188451766967773,0.23808585107326508
1772883302284304100,4.90630419921875,8.816354751586914,4.094119548797607,0.2835494875907898
1772883302300918500,4.92291845703125,9.066405296325684,4.095914363861084,0.3966103494167328
1772883302317510700,4.9395107421875,9.555737495422363,4.028914928436279,0.4749752879142761
1772883302334136600,4.956136474609375,9.907482147216797,3.964308977127075,0.6011967062950134
1772883302350729700,4.972729736328125,10.082158088684082,3.893122434616089,0.7722834944725037
1772883302367339300,4.98933935546875,10.40638542175293,3.9212381839752197,0.6891329288482666
1772883302383961300,5.00596142578125,10.312467575073242,4.003790378570557,0.4654040038585663
1772883302400546600,5.022546630859375,9.754341125488281,4.113860130310059,0.2877369225025177
1772883302417151700,5.03915185546875,9.374481201171875,4.351347923278809,0.009571290574967861
1772883302433741800,5.055741943359375,9.034700393676758,4.394418716430664,0.11186445504426956
1772883302450378000,5.0723779296875,9.042476654052734,4.287938117980957,0.29790642857551575
1772883302466984200,5.088984130859375,9.169296264648438,4.06540584564209,0.7256234884262085
1772883302483588600,5.105588623046875,9.351150512695312,3.6957144737243652,1.1766705513000488
1772883302500193500,5.122193603515625,9.609575271606445,3.242274761199951,1.333998680114746
1772883302516782600,5.138782470703125,9.827322959899902,2.7876384258270264,1.052243709564209
1772883302533387800,5.1553876953125,9.979267120361328,2.4011974334716797,0.5030909776687622
1772883302549992200,5.1719921875,10.071390151977539,2.2235305309295654,0.1381855010986328
1772883302566615000,5.188614990234375,9.875777244567871,2.224726915359497,0.2679961323738098
1772883302583219200,5.20521923828125,9.710672378540039,2.4083759784698486,0.4378865361213684
1772883302599824400,5.221824462890625,9.559326171875,2.6021945476531982,0.5694918036460876
1772883302616421600,5.238421630859375,9.18006420135498,2.717050075531006,0.6586244106292725
1772883302633034800,5.25503466796875,8.852845191955566,2.8839495182037354,0.8386843204498291
1772883302649640000,5.271639892578125,8.764909744262695,2.950350284576416,0.8057830333709717
1772883302666245600,5.28824560546875,8.9312105178833,2.93001127243042,0.5850451588630676
1772883302682850000,5.30485009765625,9.286544799804688,2.830111026763916,0.4145565330982208
1772883302699455000,5.321455078125,9.573683738708496,2.8283164501190186,0.4468596279621124
1772883302716046800,5.338046875,9.510273933410645,2.9455647468566895,0.6005984544754028
1772883302732649000,5.35464892578125,9.014959335327148,3.0179476737976074,0.47976094484329224
1772883302749240800,5.37124072265625,8.441878318786621,3.1244282722473145,0.19202402234077454
1772883302765862100,5.387862060546875,7.898109436035156,3.1453654766082764,-0.1824527233839035
1772883302782467000,5.404467041015625,7.694121360778809,3.250051259994507,-0.41994038224220276
1772883302799072300,5.421072265625,7.801798343658447,3.3338000774383545,-0.5437689423561096
1772883302815664600,5.43766455078125,7.857431411743164,3.387040376663208,-0.5772684812545776
1772883302832288800,5.454288818359375,8.019545555114746,3.4648072719573975,-0.4821537733078003
1772883302848888000,5.47088818359375,8.1493558883667,3.4791641235351562,-0.32961133122444153
1772883302865496300,5.487496337890625,8.187042236328125,3.555734395980835,-0.25782662630081177
1772883302882111700,5.50411181640625,8.38564682006836,3.6634113788604736,-0.25782662630081177
1772883302898716400,5.52071630859375,8.557332038879395,3.702893018722534,-0.20099709928035736
1772883302915313400,5.5373134765625,8.670990943908691,3.799204111099243,-0.16749759018421173
1772883302931926800,5.5539267578125,8.511868476867676,3.8321053981781006,-0.24287149310112
1772883302948531200,5.57053125,8.317451477050781,3.9876389503479004,-0.23629122972488403
1772883302965123300,5.587123291015625,8.38863754272461,4.064209461212158,-0.12083754688501358
1772883302981742300,5.603742431640625,8.593822479248047,4.132404804229736,-0.031106693670153618
1772883302998347500,5.620347412109375,8.726025581359863,4.196412563323975,-0.064606212079525
1772883303014936600,5.6369365234375,8.61057186126709,4.191627025604248,-0.19322042167186737
1772883303031558100,5.65355810546875,8.73499870300293,4.197608947753906,-0.1986042857170105
1772883303048157700,5.67015771484375,9.120243072509766,4.100101470947266,-0.053240302950143814
1772883303064774700,5.686774658203125,9.5862455368042,4.060619831085205,0.1256231814622879
1772883303081373200,5.703373291015625,9.88415241241455,4.25084924697876,0.09631111472845078
1772883303097977900,5.719977783203125,9.92961597442627,4.432105541229248,0.23629122972488403
1772883303114591200,5.73659130859375,10.04985523223877,4.4650068283081055,0.4223332107067108
1772883303131172400,5.75317236328125,10.251450538635254,4.664209365844727,0.3320041298866272
1772883303147789800,5.769789794921875,10.51944637298584,4.620540618896484,0.22013968229293823
1772883303164403500,5.786403564453125,11.145768165588379,4.166502475738525,0.3326023519039154
1772883303181003500,5.80300341796875,12.03649616241455,3.37687087059021,0.3696911036968231
1772883303197608700,5.819608642578125,12.756735801696777,2.5836503505706787,0.6370890140533447
1772883303214199000,5.836198974609375,12.90628719329834,2.0201404094696045,0.6418746709823608
1772883303230802700,5.852802734375,12.456436157226562,1.6546368598937988,0.2829512655735016
1772883303247407600,5.86940771484375,11.680563926696777,1.5391831398010254,-0.09152546525001526
1772883303264016100,5.88601611328125,10.669595718383789,1.5583257675170898,-0.267397940158844
1772883303280621000,5.90262109375,9.674779891967773,1.740180253982544,-0.40378883481025696
1772883303297226000,5.91922607421875,8.784649848937988,1.9800606966018677,-0.4498506486415863
1772883303313818400,5.935818359375,8.254639625549316,2.166102647781372,-0.4977070987224579
1772883303330436600,5.9524365234375,8.230711936950684,2.1984057426452637,-0.38285163044929504
1772883303347041500,5.96904150390625,8.769695281982422,2.163111686706543,-0.04666004329919815
1772883303363651600,5.985651611328125,9.05444049835205,2.069791555404663,0.052043892443180084
1772883303380265500,6.002265380859375,8.916254997253418,1.9926230907440186,-0.04366901144385338
1772883303396870700,6.01887060546875,8.738588333129883,2.014756679534912,-0.06640082597732544
1772883303413483300,6.035483154296875,8.838488578796387,2.035095691680908,-0.11006984114646912
1772883303430077000,6.052076904296875,8.891729354858398,2.0069799423217773,-0.11545369029045105
1772883303446686700,6.068686767578125,8.722436904907227,2.0817556381225586,-0.12323036789894104
1772883303463260000,6.085260009765625,8.327621459960938,2.197807550430298,-0.19680966436862946
1772883303479879700,6.101879638671875,7.8693952560424805,2.3611178398132324,-0.2883351147174835
1772883303496501200,6.118501220703125,7.839485168457031,2.4089741706848145,-0.35533416271209717
1772883303513089800,6.13508984375,7.912466049194336,2.572882652282715,-0.41156548261642456
1772883303529712000,6.151712158203125,7.856235027313232,2.819941520690918,-0.2231307178735733
1772883303546315000,6.16831494140625,7.786843299865723,3.0412776470184326,0.06580262631177902
1772883303562924000,6.184924072265625,7.886743545532227,3.1040892601013184,0.15672987699508667
1772883303579510300,6.20151025390625,8.180462837219238,3.0346972942352295,0.22133609652519226
1772883303596132000,6.218132080078125,8.319246292114258,3.064607620239258,0.2925225794315338
1772883303612721700,6.2347216796875,8.509475708007812,3.1615169048309326,0.4169493317604065
1772883303629342500,6.251342529296875,8.782855987548828,3.149552822113037,0.486939400434494
1772883303645947100,6.267947021484375,8.95394229888916,3.2039895057678223,0.44805604219436646
1772883303662552600,6.284552490234375,8.8648099899292,3.3242287635803223,0.28654050827026367
1772883303679140900,6.301140869140625,8.85523796081543,3.5024940967559814,0.08733802288770676
1772883303695763000,6.317762939453125,9.10110092163086,3.644867181777954,0.029312077909708023
1772883303712351700,6.334351806640625,9.097511291503906,3.8261234760284424,0.05024927482008934
1772883303728956400,6.350956298828125,9.029914855957031,3.9667017459869385,0.30987054109573364
1772883303745564400,6.367564453125,9.069396018981934,4.016951084136963,0.711864709854126
1772883303762169600,6.384169677734375,9.360123634338379,3.964308977127075,1.077966570854187
1772883303778774500,6.4007744140625,9.91286563873291,3.8596229553222656,1.150349497795105
1772883303795379500,6.41737939453125,10.29153060913086,4.041477680206299,1.058824062347412
1772883303811972400,6.433972412109375,10.385448455810547,4.227519512176514,1.2795618772506714
1772883303828590000,6.450590087890625,10.501500129699707,4.1659040451049805,1.3262219429016113
1772883303845195300,6.4671953125,10.60977554321289,4.244269371032715,1.2496516704559326
1772883303861817600,6.483817626953125,10.593026161193848,4.077369689941406,1.1772687435150146
1772883303878402600,6.500402587890625,10.569695472717285,3.7058839797973633,0.9068797826766968
1772883303895051000,6.517051025390625,10.481161117553711,3.229114055633545,0.597607433795929
1772883303911613200,6.53361328125,10.430314064025879,2.8181469440460205,0.45583271980285645
1772883303928218600,6.550218505859375,10.411170959472656,2.531606435775757,0.372682124376297
1772883303944836400,6.56683642578125,10.313663482666016,2.3443679809570312,0.2763710021972656
1772883303961448400,6.583448486328125,9.8207426071167,2.306680917739868,0.13519448041915894
1772883303978033000,6.600032958984375,9.185447692871094,2.4257240295410156,-0.04666004329919815
1772883303994655000,6.616655029296875,9.266205787658691,2.507079839706421,0.07776673883199692
1772883304011252000,6.633251953125,9.757930755615234,2.4191436767578125,0.3900300860404968
1772883304027865900,6.649865966796875,9.955338478088379,2.4011974334716797,0.47976094484329224
1772883304044470000,6.666469970703125,9.585647583007812,2.4502503871917725,0.4773681163787842
1772883304061076200,6.683076171875,9.008378982543945,2.606980323791504,0.4097708761692047
1772883304077700000,6.6997001953125,8.86361312866211,2.685943365097046,0.5066801905632019
1772883304094282800,6.71628271484375,9.045467376708984,2.7116663455963135,0.5587241053581238
1772883304110920200,6.732920166015625,9.212367057800293,2.7463622093200684,0.5772684812545776
1772883304127496700,6.74949658203125,9.183652877807617,2.723032236099243,0.47676992416381836
1772883304144093700,6.76609375,8.9312105178833,2.794816732406616,0.1585244983434677
1772883304169004000,6.791004150390625,8.679366111755371,2.796013355255127,-0.3284149169921875
1772883304185614000,6.807614013671875,8.27258586883545,2.984447956085205,-0.4773681163787842
1772883304202219500,6.824219482421875,7.94297456741333,3.2057840824127197,-0.5359922647476196
1772883304218806800,6.840806884765625,7.782655715942383,3.3379876613616943,-0.46719861030578613
1772883304235416000,6.857416015625,7.715058326721191,3.4169507026672363,-0.3038884699344635
1772883304252021200,6.874021240234375,7.95434045791626,3.4432718753814697,-0.3002992272377014
1772883304268626000,6.8906259765625,8.308478355407715,3.428316593170166,-0.34995031356811523
1772883304285230800,6.90723095703125,8.49452018737793,3.4031920433044434,-0.47557350993156433
1772883304301836500,6.92383642578125,8.484949111938477,3.3984062671661377,-0.5186443328857422
1772883304318441500,6.94044140625,8.416753768920898,3.4127633571624756,-0.589830756187439
1772883304335046100,6.957046142578125,8.673981666564941,3.538984775543213,-0.48035913705825806
1772883304351668200,6.973668212890625,8.920442581176758,3.637688636779785,-0.5527420043945312
1772883304368270800,6.990270751953125,9.036494255065918,3.755535125732422,-0.729810893535614
1772883304384876000,7.0068759765625,8.891729354858398,3.7645082473754883,-0.8530412912368774
1772883304401480400,7.02348046875,8.727222442626953,3.882354736328125,-0.8656035661697388
1772883304418086000,7.0400859375,9.004191398620605,3.946960926055908,-0.7519445419311523
1772883304434690800,7.05669091796875,9.373284339904785,3.954139471054077,-0.5724828243255615
1772883304451295700,7.073295654296875,9.777671813964844,3.885345697402954,-0.41216370463371277
1772883304467901200,7.089901123046875,9.864411354064941,3.8291144371032715,-0.48035913705825806
1772883304484505900,7.106505859375,9.67777156829834,3.9176487922668457,-0.9619147181510925
1772883304501094700,7.1230947265625,9.105886459350586,3.9804604053497314,-1.2113664150238037
1772883304517714400,7.13971435546875,9.04845905303955,3.951148271560669,-1.2400803565979004
1772883304534324200,7.15632421875,9.546165466308594,4.054637908935547,-0.9744769930839539
1772883304550926600,7.172926513671875,9.815957069396973,4.027120590209961,-0.7178468108177185
1772883304567532300,7.1895322265625,9.853045463562012,3.8973097801208496,-0.5946164131164551
1772883304584137000,7.206136962890625,9.908080101013184,3.7501513957977295,-0.6771687865257263
1772883304600742700,7.22274267578125,10.395618438720703,3.3230323791503906,-0.46779683232307434
1772883304617346600,7.2393466796875,10.995617866516113,2.819941520690918,-0.16869398951530457
1772883304633952800,7.255952880859375,11.753544807434082,2.3234307765960693,0.08135596662759781
1772883304650557400,7.272557373046875,12.038290977478027,1.9250258207321167,0.048454657196998596
1772883304667162600,7.28916259765625,11.864810943603516,1.4171491861343384,-0.08853443711996078
1772883304683767600,7.305767578125,11.239686012268066,1.23589289188385,-0.4019941985607147
1772883304700373500,7.32237353515625,9.976874351501465,1.3956137895584106,-0.5802595019340515
1772883304716960500,7.33896044921875,8.730213165283203,1.7982062101364136,-0.5174478888511658
1772883304733569300,7.3555693359375,8.085348129272461,2.0673987865448,-0.35892340540885925
1772883304750174200,7.37217431640625,7.999206066131592,2.108076810836792,-0.20997019112110138
1772883304766779600,7.388779541015625,8.405387878417969,2.132004976272583,-0.21176479756832123
1772883304783384800,7.405384765625,8.924032211303711,2.0410776138305664,-0.16749759018421173
1772883304799990000,7.421989990234375,9.016754150390625,1.9609181880950928,-0.19740787148475647
1772883304816594700,7.4385947265625,8.770891189575195,1.9926230907440186,-0.3008974492549896
1772883304833200000,7.4552001953125,8.650053977966309,1.9980069398880005,-0.49172505736351013
1772883304849805800,7.471805908203125,8.894720077514648,1.9669002294540405,-0.46002015471458435
1772883304866420200,7.488420166015625,9.235098838806152,2.035095691680908,-0.18903298676013947
1772883304883032600,7.505032470703125,9.273384094238281,2.0823538303375244,-0.06939185410737991
1772883304899618800,7.521618896484375,8.8109712600708,2.1744775772094727,-0.25244277715682983
1772883304916239600,7.538239501953125,8.448458671569824,2.3018953800201416,-0.4785645306110382
1772883304932844000,7.554843994140625,8.323433876037598,2.338984251022339,-0.46839502453804016
1772883304949449000,7.571448974609375,8.277970314025879,2.513660192489624,-0.26560330390930176
1772883304966055400,7.588055419921875,8.278568267822266,2.6392834186553955,0.1944168359041214
1772883304982659600,7.60465966796875,8.423932075500488,2.685943365097046,0.5431707501411438
1772883304999265300,7.621265380859375,8.611170768737793,2.6632115840911865,0.589830756187439
1772883305015870200,7.6378701171875,8.730213165283203,2.613560438156128,0.38285163044929504
1772883305032475400,7.654475341796875,8.84925651550293,2.6021945476531982,0.19561325013637543
1772883305049080000,7.671080078125,8.871988296508789,2.6500511169433594,0.19561325013637543
1772883305065686000,7.68768603515625,8.839086532592773,2.912663459777832,0.2793620526790619
1772883305082290000,7.7042900390625,8.86361312866211,3.1417760848999023,0.3762713670730591
1772883305098896100,7.720896240234375,9.086145401000977,3.33858585357666,0.5772684812545776
1772883305115501300,7.737501220703125,9.516854286193848,3.3756744861602783,0.7046862840652466
1772883305132105700,7.754105712890625,9.997213363647461,3.294318675994873,0.7393822073936462
1772883305148708000,7.7707080078125,10.363314628601074,3.1788649559020996,0.7268198728561401
1772883305165316400,7.78731640625,10.690533638000488,3.067598581314087,0.7339983582496643
1772883305181921800,7.803921875,11.08774185180664,3.0628130435943604,0.6885347366333008
1772883305198509000,7.820509033203125,11.280961990356445,3.171088218688965,0.5832505226135254
1772883305215117600,7.83711767578125,10.96869945526123,3.403790235519409,0.3236292600631714
1772883305231723300,7.85372314453125,10.355538368225098,3.5910286903381348,0.050847481936216354
1772883305248328000,7.870327880859375,9.847661972045898,3.8356947898864746,-0.13579268753528595
1772883305264933000,7.88693310546875,9.474979400634766,3.9014973640441895,0.14416755735874176
1772883305281538000,7.9035380859375,10.046265602111816,3.678964853286743,0.5700899958610535
1772883305298143700,7.920143798828125,11.11765193939209,3.0101709365844727,0.7022934556007385
1772883305314748400,7.93674853515625,11.318649291992188,2.42512583732605,0.5341976284980774
1772883305331353600,7.953353515625,10.62831974029541,2.15653133392334,0.2632105052471161
1772883305347975200,7.96997509765625,9.966106414794922,1.9824535846710205,0.18005990982055664
1772883305364578300,7.986578369140625,9.70229721069336,1.9992033243179321,0.11904292553663254
1772883305381182500,8.003182373046876,9.844670295715332,2.001596212387085,0.02273181453347206
1772883305397788000,8.019787841796875,10.143773078918457,1.866999864578247,-0.037088751792907715
1772883305414393000,8.03639306640625,10.285548210144043,1.7473586797714233,0.08554340898990631
1772883305430998000,8.052998046875,9.942776679992676,1.7886348962783813,0.4654040038585663
1772883305447602700,8.069602783203125,9.251250267028809,2.0135602951049805,0.753140926361084
1772883305464187600,8.086187744140625,8.749356269836426,2.317448616027832,0.9541380405426025
1772883305480799000,8.102799072265626,8.545966148376465,2.4765713214874268,1.1096714735031128
1772883305497399800,8.11939990234375,8.82233715057373,2.551347255706787,1.1377872228622437
1772883305514012200,8.13601220703125,9.172286987304688,2.5262224674224854,1.140179991722107
1772883305530628400,8.15262841796875,9.153144836425781,2.5351955890655518,1.1880364418029785
1772883305547233300,8.1692333984375,8.952147483825684,2.7637102603912354,1.095314621925354
1772883305563839500,8.185839599609375,8.583653450012207,2.8827531337738037,0.6867401003837585
1772883305580444000,8.20244384765625,8.084151268005371,3.053839921951294,0.14117653667926788
1772883305597049300,8.21904931640625,7.6767730712890625,3.2380871772766113,-0.13280165195465088
1772883305613654500,8.235654541015625,7.7461652755737305,3.3822548389434814,-0.12263216078281403
1772883305630259500,8.252259521484374,7.961519241333008,3.459423303604126,0.10648060590028763
1772883305646864100,8.268864013671875,8.26241683959961,3.5054850578308105,0.17706887423992157
1772883305663470300,8.28547021484375,8.741579055786133,3.4815568923950195,0.18364913761615753
1772883305680074200,8.30207421875,8.952147483825684,3.469592809677124,0.17766708135604858
1772883305696663000,8.3186630859375,8.96530818939209,3.4809587001800537,0.0005982056609354913
1772883305713271600,8.335271484375,8.7445707321167,3.4791641235351562,-0.09391828626394272
1772883305729876500,8.35187646484375,8.415556907653809,3.634697675704956,-0.2153540402650833
1772883305746481200,8.368481201171875,8.364709854125977,3.8009986877441406,-0.1178465187549591
1772883305763086800,8.3850869140625,8.530412673950195,3.9122650623321533,-0.09451649338006973
1772883305779691800,8.40169189453125,8.772088050842285,4.029513359069824,-0.08973085135221481
1772883305796296700,8.418296630859375,8.660821914672852,4.109673023223877,-0.08853443711996078
1772883305812902000,8.43490185546875,8.374878883361816,4.274777889251709,-0.16271193325519562
1772883305829511000,8.451510986328126,8.729615211486816,4.2825541496276855,-0.054436713457107544
1772883305846126000,8.4681259765625,9.226125717163086,4.180859565734863,0.1908276081085205
1772883305862731000,8.48473095703125,9.772886276245117,4.151547431945801,0.34995031356811523
1772883305879336400,8.50133642578125,10.158130645751953,4.24785852432251,0.22432711720466614
1772883305895941400,8.51794140625,10.04148006439209,4.455435752868652,-0.15613168478012085
1772883305912546800,8.534546875,9.860223770141602,4.34536600112915,-0.41934216022491455
1772883305929151700,8.55115185546875,10.202397346496582,4.342374801635742,-0.7226324677467346
1772883305945756400,8.56775634765625,10.2747802734375,4.346562385559082,-0.607776939868927
1772883305962361900,8.58436181640625,9.873982429504395,4.355535507202148,-0.4145565330982208
1772883305978967300,8.60096728515625,9.760323524475098,4.371686935424805,-0.18364913761615753
1772883305995571700,8.61757177734375,10.363913536071777,3.916452407836914,0.053240302950143814
1772883306012177200,8.63417724609375,11.145169258117676,3.1956145763397217,0.3397808074951172
1772883306028783000,8.650783203125,11.663813591003418,2.578864574432373,0.34695929288864136
1772883306045387300,8.66738720703125,11.5914306640625,2.0955145359039307,0.2626122832298279
1772883306061992200,8.6839921875,10.975278854370117,1.937588095664978,0.006580262444913387
1772883306078597600,8.70059765625,9.851848602294922,2.0470597743988037,-0.24466611444950104
1772883306095202600,8.71720263671875,8.781061172485352,2.17627215385437,-0.4624129831790924
1772883306111808300,8.733808349609374,8.514261245727539,2.397010087966919,-0.33020952343940735
1772883306128413400,8.750413330078125,8.7176513671875,2.344966173171997,-0.16450655460357666
1772883306144999700,8.766999755859375,8.835497856140137,2.4185454845428467,-0.15972091257572174
1772883306161631200,8.78363134765625,8.851649284362793,2.627917528152466,-0.03409772366285324
1772883306178211600,8.800211669921875,8.423932075500488,2.789433002471924,0.1417747437953949
1772883306194819600,8.816819580078125,7.941180229187012,3.0562326908111572,0.22791635990142822
1772883306211422200,8.833422119140625,7.829315662384033,3.1645078659057617,0.27696922421455383
1772883306228030500,8.850030517578125,8.291728973388672,3.0065815448760986,0.3355933725833893
1772883306244630500,8.866630615234374,8.827122688293457,2.8013970851898193,0.388235479593277
1772883306261244400,8.883244384765625,9.355937004089355,2.7529425621032715,0.6149554252624512
1772883306277845000,8.899844970703125,9.364909172058105,2.767897605895996,0.5479564070701599
1772883306294450700,8.91645068359375,8.609973907470703,2.9515466690063477,0.46719861030578613
1772883306311055600,8.9330556640625,8.063214302062988,3.1585259437561035,0.18484555184841156
1772883306327661600,8.94966162109375,8.24985408782959,3.1561331748962402,0.13639089465141296
1772883306344280600,8.966280517578125,8.648857116699219,3.0693931579589844,0.17647066712379456
1772883306360885000,8.982885009765624,8.794221878051758,2.984447956085205,0.2273181527853012
1772883306377490000,8.999489990234375,8.664410591125488,3.067598581314087,0.3720839321613312
1772883306394094800,9.0160947265625,8.483752250671387,3.3176486492156982,0.5712863802909851
1772883306410683600,9.03268359375,8.50588607788086,3.442075490951538,0.6149554252624512
1772883306427305000,9.049304931640625,8.439485549926758,3.600599765777588,0.4492524564266205
1772883306443909000,9.0659091796875,8.355138778686523,3.6777684688568115,0.23988047242164612
1772883306460508700,9.0825087890625,8.468199729919434,3.789034605026245,0.268594354391098
1772883306477120500,9.09912060546875,8.483752250671387,4.013361930847168,0.3613162338733673
1772883306493709000,9.115708984375,8.504690170288086,4.204189300537109,0.49172505736351013
1772883306510330600,9.13233056640625,8.613563537597656,4.309473514556885,0.6065805554389954
1772883306526935800,9.148935791015624,8.73499870300293,4.478167533874512,0.6023930907249451
1772883306543524000,9.165524169921875,8.958727836608887,4.491328239440918,0.5102694034576416
1772883306560146400,9.182146484375,9.19023323059082,4.435096740722656,0.6329016089439392
1772883306576751000,9.198751220703125,9.534799575805664,4.2693939208984375,0.8781659007072449
1772883306593356000,9.21535595703125,9.636494636535645,4.268795490264893,1.0689935684204102
1772883306609961000,9.2319609375,9.717850685119629,4.396811485290527,0.7154539823532104
1772883306626566700,9.248566650390625,9.494720458984375,4.680361270904541,0.29790642857551575
1772883306643155000,9.265155029296874,9.314062118530273,4.860421180725098,0.31465616822242737
1772883306659776800,9.28177685546875,9.672985076904297,5.108676433563232,0.2715853750705719
1772883306676364300,9.2983642578125,9.686744689941406,5.13739013671875,0.3002992272377014
1772883306692973300,9.314973388671875,9.65683364868164,4.804189682006836,0.6185446381568909
1772883306709578500,9.33157861328125,10.305289268493652,4.244867324829102,0.8069794178009033
1772883306726183400,9.348183349609375,11.260025024414062,3.3744781017303467,0.8524430394172668
1772883306742788400,9.364788330078126,11.742776870727539,2.779263496398926,0.5054838061332703
1772883306759394000,9.38139404296875,11.480164527893066,2.400599241256714,0.2225325107574463
1772883306775998700,9.397998779296875,10.828120231628418,2.221137523651123,0.28235307335853577
1772883306792604200,9.414604248046874,10.235299110412598,2.444866418838501,0.2153540402650833
1772883306809208800,9.431208740234375,9.870393753051758,2.428116798400879,0.001794616924598813
1772883306825831400,9.44783154296875,9.259625434875488,2.4951157569885254,-0.2189432680606842
1772883306842432800,9.464432861328126,8.677571296691895,2.7637102603912354,0.08315058797597885
1772883306859038200,9.4810380859375,8.82114028930664,2.933600664138794,0.6047859191894531
1772883306875643100,9.49764306640625,9.135198593139648,2.8677978515625,0.8368897438049316
1772883306892248800,9.514248779296874,8.007580757141113,3.132802963256836,0.3475574851036072
1772883306908853500,9.530853515625,7.557730197906494,3.390629768371582,0.357128769159317
1772883306925452500,9.54745263671875,7.451249599456787,3.521636724472046,0.6358926296234131
1772883306942046700,9.564046630859375,7.534400463104248,3.5341989994049072,0.9320043921470642
1772883306958669300,9.58066943359375,7.949554920196533,3.61017107963562,0.9445667266845703
1772883306975274000,9.59727392578125,7.979465484619141,3.5204403400421143,0.8865407705307007
