time,seconds_elapsed,z,y,x
1772883297643196400,0.265196533203125,-0.49898624420166016,0.02748870849609375,-0.02974522113800049
1772883297659803000,0.281802978515625,-0.739079475402832,0.25560784339904785,0.08374881744384766
1772883297676414000,0.2984140625,-0.7945690155029297,0.5197422504425049,0.22710293531417847
1772883297693019100,0.31501904296875,-0.7094364166259766,0.5953290462493896,0.44618409872055054
1772883297709619700,0.33161962890625,-0.8323764801025391,0.6951305866241455,0.527633786201477
1772883297726226700,0.348226806640625,-0.9634017944335938,0.7769722938537598,0.4945046305656433
1772883297742833700,0.364833740234375,-0.9674768447875977,0.871009111404419,0.5566514730453491
1772883297759421400,0.38142138671875,-0.8757553100585938,0.8946683406829834,0.508305549621582
1772883297776034600,0.39803466796875,-0.9844369888305664,0.9570534229278564,0.4026391804218292
1772883297792632000,0.414632080078125,-1.1234283447265625,1.0467579364776611,0.38095343112945557
1772883297809250000,0.43125,-0.9967184066772461,1.120927333831787,0.47875744104385376
1772883297825836300,0.447836181640625,-0.8406686782836914,1.1601765155792236,0.6000257730484009
1772883297842465500,0.464465576171875,-0.7323369979858398,1.269601821899414,0.7379190921783447
1772883297859051300,0.48105126953125,-0.6172332763671875,1.3569726943969727,0.8780869841575623
1772883297875670500,0.49767041015625,-0.38193225860595703,1.3839342594146729,1.0187840461730957
1772883297892298800,0.514298828125,-0.09396934509277344,1.4657502174377441,1.129509687423706
1772883297908872200,0.5308720703125,0.07497024536132812,1.5971698760986328,1.1549098491668701
1772883297925486300,0.547486328125,0.16447162628173828,1.7132954597473145,1.106162667274475
1772883297942095600,0.564095703125,0.15874195098876953,1.8171448707580566,1.0715078115463257
1772883297958682000,0.58068212890625,0.03368854522705078,1.8837158679962158,1.0930202007293701
1772883297975283000,0.597282958984375,0.03795909881591797,1.8862321376800537,1.2089301347732544
1772883297991885300,0.61388525390625,0.4904813766479492,1.6888175010681152,1.3845593929290771
1772883298008503000,0.6305029296875,0.9944667816162109,1.4091150760650635,1.428389310836792
1772883298025103600,0.647103515625,1.1464424133300781,1.1145823001861572,1.3009501695632935
1772883298041713000,0.663712890625,1.0658063888549805,1.0553052425384521,1.0004247426986694
1772883298058316000,0.68031591796875,0.597071647644043,1.0929319858551025,0.9038890600204468
1772883298074917000,0.696917236328125,-0.03324127197265625,1.0454347133636475,1.090029239654541
1772883298091515100,0.71351513671875,-0.14408016204833984,1.3458600044250488,0.7618603706359863
1772883298108141800,0.730141845703125,-0.27991294860839844,1.360877513885498,0.7025169134140015
1772883298124732700,0.746732666015625,-0.5265789031982422,1.2597062587738037,0.9406155347824097
1772883298141359600,0.763359619140625,-0.5899209976196289,1.0866825580596924,1.233328938484192
1772883298157962800,0.779962646484375,-0.5792713165283203,0.8368556499481201,1.3443961143493652
1772883298174574000,0.796573974609375,-0.4662599563598633,0.46627306938171387,1.2153797149658203
1772883298191164200,0.8131640625,-0.40186309814453125,0.08350896835327148,1.046480417251587
1772883298207777800,0.82977783203125,-0.28977203369140625,-0.20104467868804932,0.9975271224975586
1772883298224380700,0.846380615234375,-0.21059226989746094,-0.4025231599807739,0.8052283525466919
1772883298240989000,0.862989013671875,-0.09241867065429688,-0.49594998359680176,0.3972746729850769
1772883298257591300,0.87959130859375,0.01881694793701172,-0.48143184185028076,0.19605028629302979
1772883298274223900,0.896223876953125,0.06429195404052734,-0.31547439098358154,0.11442214250564575
1772883298290794800,0.912794677734375,-0.07110404968261719,0.03460884094238281,0.3556165099143982
1772883298307406300,0.92940625,-0.2814159393310547,0.4251973628997803,0.8018980622291565
1772883298324004900,0.9460048828125,-0.5701694488525391,0.7271697521209717,1.3008047342300415
1772883298340617200,0.9626171875,-0.7705621719360352,0.9575943946838379,1.6548930406570435
1772883298357235700,0.979235595703125,-0.6819143295288086,1.0639840364456177,1.7885777950286865
1772883298373822200,0.995822265625,-0.4006671905517578,1.0243009328842163,1.8296160697937012
1772883298390459000,1.012458984375,-0.11517620086669922,1.0076369047164917,1.8179130554199219
1772883298407051000,1.029051025390625,-0.035393714904785156,1.014968752861023,1.6758167743682861
1772883298423639300,1.045639404296875,-0.2581310272216797,1.044554352760315,1.403304100036621
1772883298440243700,1.06224365234375,-0.7049856185913086,1.0769826173782349,1.0268032550811768
1772883298456847000,1.07884716796875,-1.2284698486328125,1.1623488664627075,0.6833988428115845
1772883298473462800,1.095462890625,-1.6226491928100586,1.2053946256637573,0.47153109312057495
1772883298490069800,1.11206982421875,-1.723109245300293,1.2163097858428955,0.3692612648010254
1772883298506626000,1.1286259765625,-1.4931869506835938,1.1773210763931274,0.3245064616203308
1772883298523256600,1.145256591796875,-1.1140336990356445,1.1796730756759644,0.33013707399368286
1772883298539862300,1.1618623046875,-0.7552728652954102,1.2487753629684448,0.3795827031135559
1772883298556467200,1.17846728515625,-0.6099872589111328,1.3055157661437988,0.3648478090763092
1772883298573073200,1.1950732421875,-0.7110519409179688,1.3991811275482178,0.2608403265476227
1772883298589676500,1.211676513671875,-0.6897315979003906,1.4827070236206055,0.14958178997039795
1772883298606282200,1.2282822265625,-0.5903549194335938,1.5155550241470337,0.08706650137901306
1772883298622905000,1.244905029296875,-0.6533041000366211,1.5991599559783936,0.016664505004882812
1772883298639503600,1.261503662109375,-0.6691408157348633,1.694027304649353,0.051744163036346436
1772883298656098300,1.278098388671875,-0.4087562561035156,1.7148363590240479,0.1406955122947693
1772883298672716300,1.29471630859375,-0.09424972534179688,1.6667773723602295,0.20450210571289062
1772883298689318100,1.311318115234375,0.138885498046875,1.6207187175750732,0.25034773349761963
1772883298705906400,1.327906494140625,0.4152250289916992,1.5240764617919922,0.2786564826965332
1772883298722530300,1.3445302734375,0.7931089401245117,1.6184494495391846,0.27589452266693115
1772883298739138000,1.361137939453125,0.9216289520263672,1.7869720458984375,0.27540314197540283
1772883298755712500,1.37771240234375,0.8487100601196289,1.8192435503005981,0.3653280735015869
1772883298772345300,1.394345458984375,0.8981075286865234,1.8663424253463745,0.4413538873195648
1772883298788946400,1.410946533203125,1.198263168334961,1.7687413692474365,0.5426572561264038
1772883298805561000,1.42756103515625,1.7681560516357422,1.4593337774276733,0.5702548623085022
1772883298822164200,1.444164306640625,2.1675891876220703,1.0770429372787476,0.5762724876403809
1772883298838761000,1.460760986328125,2.115062713623047,0.6588726043701172,0.6225805282592773
1772883298855358000,1.47735791015625,1.6799554824829102,0.3171360492706299,0.7092198133468628
1772883298871976400,1.4939765625,1.311039924621582,0.08275198936462402,0.7408719658851624
1772883298888580900,1.510580810546875,1.2530193328857422,-0.13531708717346191,0.6684333086013794
1772883298905187600,1.5271875,1.295548439025879,-0.38307511806488037,0.5063619017601013
1772883298921787600,1.54378759765625,0.8778142929077148,-0.5936276912689209,0.4720265865325928
1772883298938402600,1.560402587890625,-0.06572914123535156,-0.45955514907836914,0.603073000907898
1772883298954979000,1.57697900390625,-1.0279064178466797,-0.169630765914917,0.6654021739959717
1772883298971592000,1.593592041015625,-1.529524803161621,0.056861042976379395,0.866304874420166
1772883298988209700,1.610209716796875,-1.7111520767211914,0.19652581214904785,1.0607471466064453
1772883299004804900,1.626804931640625,-1.3239727020263672,0.17120122909545898,1.0753440856933594
1772883299021431600,1.643431640625,-0.8209295272827148,0.128373384475708,1.03080153465271
1772883299038017500,1.660017578125,-0.6176986694335938,0.257535457611084,1.06167733669281
1772883299054616800,1.676616943359375,-0.8271484375,0.4646110534667969,1.162720799446106
1772883299071226400,1.693226318359375,-1.0614585876464844,0.6630604267120361,1.1278607845306396
1772883299087829200,1.709829345703125,-0.9573678970336914,0.7445347309112549,0.878199577331543
1772883299104421400,1.72642138671875,-0.703618049621582,0.7343361377716064,0.6523932218551636
1772883299121047800,1.7430478515625,-0.29712772369384766,0.63517165184021,0.452461838722229
1772883299137659000,1.759658935546875,0.06881427764892578,0.48406076431274414,0.3341565430164337
1772883299154248000,1.776248046875,0.17518234252929688,0.41290998458862305,0.33702796697616577
1772883299170870800,1.792870849609375,0.23470306396484375,0.41434431076049805,0.40903937816619873
1772883299187470600,1.809470703125,0.2611417770385742,0.4442932605743408,0.39374804496765137
1772883299204081700,1.82608154296875,0.31803226470947266,0.39670681953430176,0.3960786461830139
1772883299220687400,1.842687255859375,0.4458141326904297,0.3454737663269043,0.5956110954284668
1772883299237294800,1.859294921875,0.32367610931396484,0.372560977935791,0.8049936294555664
1772883299253856500,1.8758564453125,-0.11531829833984375,0.39213132858276367,0.9112284183502197
1772883299270497500,1.89249755859375,-0.6154489517211914,0.3650832176208496,0.9288363456726074
1772883299287098600,1.9090986328125,-1.085723876953125,0.34487462043762207,0.9180479049682617
1772883299303712300,1.925712158203125,-1.4827938079833984,0.44729089736938477,0.9034469127655029
1772883299320313300,1.942313232421875,-1.8022832870483398,0.5469355583190918,0.8939558863639832
1772883299336920000,1.958920166015625,-2.0079264640808105,0.7122840881347656,0.826483964920044
1772883299353496000,1.97549609375,-2.0181965827941895,0.8736975193023682,0.6406981945037842
1772883299370131200,1.992131103515625,-1.892209529876709,0.9228897094726562,0.4749504327774048
1772883299386731000,2.00873095703125,-1.6960668563842773,1.0607361793518066,0.43704429268836975
1772883299403342300,2.02534228515625,-1.2530231475830078,1.259934902191162,0.5152334570884705
1772883299419943400,2.041943359375,-0.7510786056518555,1.3075079917907715,0.6905725002288818
1772883299436549600,2.058549560546875,-0.4038238525390625,1.2308690547943115,0.7072563171386719
1772883299453122800,2.075122802734375,-0.2951679229736328,1.1113739013671875,0.6794230937957764
1772883299469758200,2.09175830078125,-0.01958751678466797,1.0737409591674805,0.6469253301620483
1772883299486366200,2.1083662109375,0.42319679260253906,1.0160655975341797,0.5837644338607788
1772883299502959600,2.124959716796875,0.7300128936767578,1.0020880699157715,0.38836580514907837
1772883299519559000,2.141558837890625,0.7440080642700195,1.1592180728912354,0.2388278990983963
1772883299536167200,2.158167236328125,0.32674217224121094,1.4090089797973633,0.34749242663383484
1772883299552753200,2.174753173828125,-0.10814476013183594,1.5057041645050049,0.5217638611793518
1772883299569381000,2.191381103515625,0.05265998840332031,1.3810389041900635,0.7637921571731567
1772883299585982500,2.207982421875,0.6568794250488281,1.040557861328125,0.944093644618988
1772883299602605000,2.22460498046875,1.1102485656738281,0.533367395401001,1.0042743682861328
1772883299619204000,2.2412041015625,1.1543893814086914,0.13555240631103516,0.9243956804275513
1772883299635811300,2.257811279296875,0.8776426315307617,-0.04752230644226074,0.8315044641494751
1772883299652415200,2.274415283203125,0.3751697540283203,-0.06361055374145508,0.7815831899642944
1772883299669019100,2.29101904296875,-0.12807083129882812,-0.009513139724731445,0.7342970967292786
1772883299685623600,2.30762353515625,-0.36456871032714844,-0.025999784469604492,0.7580274343490601
1772883299702221000,2.324220947265625,-0.2277202606201172,0.028899669647216797,0.801490068435669
1772883299718829600,2.34082958984375,0.025808334350585938,0.140211820602417,0.9671154022216797
1772883299735443200,2.357443115234375,0.08348846435546875,0.2720475196838379,1.259361982345581
1772883299752023300,2.374023193359375,-0.21041393280029297,0.41767096519470215,1.489194393157959
1772883299768649700,2.390649658203125,-0.6761407852172852,0.5227468013763428,1.4900710582733154
1772883299785255200,2.407255126953125,-0.9737739562988281,0.6248745918273926,1.486060380935669
1772883299801863400,2.423863525390625,-0.8803186416625977,0.650294303894043,1.4503365755081177
1772883299818464500,2.440464599609375,-0.3008699417114258,0.5445718765258789,1.3072700500488281
1772883299835056000,2.45705615234375,0.14033126831054688,0.4234464168548584,1.1147732734680176
1772883299851662000,2.473662109375,0.23491287231445312,0.31492018699645996,0.9552423357963562
1772883299868288800,2.490288818359375,-0.09016609191894531,0.30917811393737793,0.7839076519012451
1772883299884877000,2.506876953125,-0.663203239440918,0.41045713424682617,0.5630814433097839
1772883299901494800,2.523494873046875,-1.0724239349365234,0.5186293125152588,0.39689117670059204
1772883299918096100,2.54009619140625,-1.345982551574707,0.6517798900604248,0.32668536901474
1772883299934703400,2.556703369140625,-1.3938932418823242,0.7517154216766357,0.30791550874710083
1772883299951308000,2.57330810546875,-1.2166624069213867,0.8157110214233398,0.40997129678726196
1772883299967912400,2.589912353515625,-1.0229825973510742,0.9150278568267822,0.582547664642334
1772883299984498400,2.60649853515625,-1.022562026977539,1.033766269683838,0.7085202932357788
1772883300001116400,2.623116455078125,-1.1636943817138672,1.1543986797332764,0.774337887763977
1772883300017715000,2.63971484375,-1.1425542831420898,1.2626569271087646,0.7436762452125549
1772883300034319600,2.656319580078125,-1.081681251525879,1.3215372562408447,0.7558342218399048
1772883300050924500,2.672924560546875,-1.1805438995361328,1.3606574535369873,0.7786529064178467
1772883300067530800,2.68953076171875,-1.334822654724121,1.4249777793884277,0.7671042084693909
1772883300084135200,2.70613525390625,-1.349106788635254,1.4867403507232666,0.7579377293586731
1772883300100755700,2.722755615234375,-1.3428831100463867,1.5522727966308594,0.6869746446609497
1772883300117359900,2.73935986328125,-1.3596477508544922,1.6496140956878662,0.6803570985794067
1772883300133948700,2.75594873046875,-1.2965507507324219,1.6744606494903564,0.6805423498153687
1772883300150552800,2.772552734375,-1.0991783142089844,1.6721975803375244,0.6642662286758423
1772883300167174100,2.789174072265625,-0.8379755020141602,1.6368725299835205,0.7161682844161987
1772883300183774500,2.8057744140625,-0.5145072937011719,1.6341097354888916,0.8830351829528809
1772883300200393700,2.822393798828125,-0.18564605712890625,1.5827159881591797,1.0192933082580566
1772883300216990200,2.838990234375,0.1814889907836914,1.504521131515503,0.9357708692550659
1772883300233593000,2.855593017578125,0.4835205078125,1.6208105087280273,0.5349902510643005
1772883300250203600,2.87220361328125,0.5548257827758789,1.6888315677642822,0.3267805874347687
1772883300266787800,2.888787841796875,0.4013967514038086,1.768080711364746,0.30068305134773254
1772883300283400700,2.905400634765625,0.1646270751953125,2.0265443325042725,0.3107455372810364
1772883300300001000,2.9220009765625,0.019720077514648438,2.134647846221924,0.565394937992096
1772883300316609300,2.938609375,0.2107381820678711,2.1649880409240723,0.8173211812973022
1772883300333198300,2.9551982421875,0.9572343826293945,1.7750859260559082,1.0871365070343018
1772883300349802500,2.971802490234375,1.7509384155273438,1.103600263595581,1.3213990926742554
1772883300366430700,2.9884306640625,2.3388490676879883,0.41268396377563477,1.3552589416503906
1772883300383025000,3.00502490234375,2.506220817565918,-0.1741313934326172,1.0926826000213623
1772883300399650600,3.021650634765625,2.064030647277832,-0.5034809112548828,0.6758962869644165
1772883300416251600,3.038251708984375,1.3949241638183594,-0.6282597780227661,0.35901257395744324
1772883300432854300,3.054854248046875,0.4598817825317383,-0.5419609546661377,0.4350101947784424
1772883300449459500,3.07145947265625,-0.5558261871337891,-0.23500847816467285,0.5494410395622253
1772883300466070000,3.088070068359375,-1.310502052307129,-0.022429943084716797,0.589392364025116
1772883300482653000,3.10465283203125,-1.5265483856201172,0.049587249755859375,0.7006093859672546
1772883300499268000,3.12126806640625,-1.314971923828125,0.07009577751159668,0.9959558844566345
1772883300515864000,3.137864013671875,-1.0121841430664062,0.09545087814331055,1.2138422727584839
1772883300532473900,3.154473876953125,-0.7300024032592773,0.0076754093170166016,1.1901142597198486
1772883300549077500,3.171077392578125,-0.4292631149291992,-0.15682029724121094,0.9827970862388611
1772883300565683500,3.187683349609375,-0.09929752349853516,-0.2946624755859375,0.743598222732544
1772883300582311700,3.204311767578125,0.1750354766845703,-0.35701537132263184,0.5797240138053894
1772883300598909200,3.2209091796875,0.21447467803955078,-0.3477776050567627,0.438960462808609
1772883300615505700,3.237505615234375,-0.011378288269042969,-0.3330252170562744,0.390453040599823
1772883300632117500,3.254117431640625,-0.4024686813354492,-0.18609857559204102,0.4347926676273346
1772883300648723200,3.27072314453125,-0.8490495681762695,-0.0047147274017333984,0.5143824815750122
1772883300665327900,3.287327880859375,-1.1679143905639648,0.1744835376739502,0.5746361017227173
1772883300681927000,3.303927001953125,-1.2748966217041016,0.3463630676269531,0.6446381211280823
1772883300698550000,3.320550048828125,-1.1645622253417969,0.4620361328125,0.7276479005813599
1772883300715138600,3.337138671875,-0.9658718109130859,0.531893253326416,0.80583256483078
1772883300731728100,3.35372802734375,-0.8388309478759766,0.6339471340179443,0.9149656295776367
1772883300748342800,3.3703427734375,-0.8925609588623047,0.7752909660339355,1.0669084787368774
1772883300764941300,3.38694140625,-0.9852743148803711,0.9957168102264404,1.1317799091339111
1772883300781549000,3.403549072265625,-0.9629058837890625,1.0949292182922363,1.0428745746612549
1772883300798173000,3.4201728515625,-0.8608102798461914,1.1097519397735596,0.8681696653366089
1772883300814773800,3.436773681640625,-0.7065849304199219,1.176443099975586,0.7056957483291626
1772883300831379000,3.45337890625,-0.6977424621582031,1.2604084014892578,0.6797909736633301
1772883300847979000,3.46997900390625,-0.8149948120117188,1.4422860145568848,0.7990825176239014
1772883300864595200,3.48659521484375,-0.7378149032592773,1.561511516571045,0.915179967880249
1772883300881191000,3.50319091796875,-0.5038309097290039,1.5562400817871094,0.9733035564422607
1772883300897803500,3.519803466796875,-0.09035873413085938,1.4518322944641113,0.9704911112785339
1772883300914404900,3.53640478515625,0.3987579345703125,1.2349636554718018,0.9746093153953552
1772883300931009500,3.553009521484375,0.8449163436889648,1.0491132736206055,0.9559645056724548
1772883300947615200,3.569615234375,1.1568927764892578,1.0314950942993164,0.8375581502914429
1772883300964220400,3.586220458984375,1.2381792068481445,1.065046787261963,0.816300630569458
1772883300980808400,3.602808349609375,1.1086044311523438,1.1504645347595215,0.9040728807449341
1772883300997416400,3.61941650390625,0.8803901672363281,1.3520498275756836,0.9170839786529541
1772883301014017500,3.636017578125,0.47151947021484375,1.5377323627471924,0.9557446837425232
1772883301030631000,3.652630859375,0.10581398010253906,1.4056479930877686,1.1790343523025513
1772883301047232300,3.669232177734375,0.40164756774902344,1.0023870468139648,1.5092577934265137
1772883301063837000,3.6858369140625,1.2781028747558594,0.38835620880126953,1.688495397567749
1772883301080455400,3.702455322265625,2.0279483795166016,-0.11905765533447266,1.6307437419891357
1772883301097065000,3.71906494140625,2.3298778533935547,-0.4829678535461426,1.4362561702728271
1772883301113666300,3.735666259765625,1.830728530883789,-0.6869338750839233,1.2500178813934326
1772883301130271500,3.752271484375,0.8083124160766602,-0.5958824157714844,1.1043121814727783
1772883301146876700,3.768876708984375,-0.09812641143798828,-0.3276791572570801,0.9975640773773193
1772883301163480800,3.785480712890625,-0.647435188293457,-0.05593061447143555,1.0547099113464355
1772883301180087000,3.802087158203125,-1.0144596099853516,0.16929864883422852,1.2655164003372192
1772883301196687400,3.818687255859375,-1.1213722229003906,0.3395979404449463,1.4187990427017212
1772883301213297700,3.835297607421875,-1.028111457824707,0.31000542640686035,1.5101346969604492
1772883301229905700,3.85190576171875,-0.8448123931884766,0.24038386344909668,1.4515092372894287
1772883301246507500,3.868507568359375,-0.7379035949707031,0.17618346214294434,1.3407379388809204
1772883301263112700,3.88511279296875,-0.7695846557617188,0.18348193168640137,1.2007412910461426
1772883301279713500,3.901713623046875,-0.968170166015625,0.2532951831817627,0.9863494634628296
1772883301296331000,3.9183310546875,-1.217757225036621,0.3778495788574219,0.7710191607475281
1772883301312919800,3.934919921875,-1.4392290115356445,0.500185489654541,0.43085724115371704
1772883301329536300,3.951536376953125,-1.5713615417480469,0.6477060317993164,0.22052156925201416
1772883301346137300,3.968137451171875,-1.7655925750732422,0.8813943862915039,0.11637121438980103
1772883301362742800,3.98474267578125,-1.8891487121582031,1.047333002090454,0.11275529861450195
1772883301379348200,4.00134814453125,-1.7747611999511719,1.1182646751403809,0.21529090404510498
1772883301395947800,4.01794775390625,-1.320261001586914,1.1000633239746094,0.31354838609695435
1772883301412563200,4.034563232421875,-0.7206974029541016,0.9489743709564209,0.3209097385406494
1772883301429163300,4.051163330078125,-0.4786720275878906,0.8984508514404297,0.3505076766014099
1772883301445768700,4.067768798828125,-0.577239990234375,0.9377086162567139,0.3364621698856354
1772883301462356500,4.0843564453125,-0.8787097930908203,1.0487234592437744,0.40428426861763
1772883301478965200,4.10096533203125,-1.1230030059814453,1.2523512840270996,0.546552300453186
1772883301495569700,4.117569580078125,-1.0858688354492188,1.4033663272857666,0.6703313589096069
1772883301512178000,4.134177978515625,-0.98046875,1.4563813209533691,0.6552222967147827
1772883301528778200,4.1507783203125,-0.8426065444946289,1.4743366241455078,0.5500833988189697
1772883301545385500,4.167385498046875,-0.6417932510375977,1.439582109451294,0.5234414339065552
1772883301561993700,4.18399365234375,-0.5396785736083984,1.4023659229278564,0.515023946762085
1772883301578605800,4.200605712890625,-0.4919776916503906,1.4356210231781006,0.528560996055603
1772883301595221200,4.21722119140625,-0.20952415466308594,1.3976738452911377,0.5655024647712708
1772883301611819300,4.2338193359375,0.09282779693603516,1.2582154273986816,0.5561031103134155
1772883301628422100,4.250422119140625,0.264312744140625,1.1798820495605469,0.474327027797699
1772883301645030100,4.267030029296875,0.2715444564819336,1.4472875595092773,0.2996078133583069
1772883301661655800,4.28365576171875,0.14329051971435547,1.5294783115386963,0.24766242504119873
1772883301678241000,4.300240966796875,0.2931251525878906,1.6317172050476074,0.2657521367073059
1772883301694844700,4.3168447265625,0.3044729232788086,1.7536418437957764,0.30628007650375366
1772883301711451000,4.333450927734375,0.05793952941894531,1.7172300815582275,0.4694565534591675
1772883301728062200,4.350062255859375,0.01738452911376953,1.6789603233337402,0.6438823342323303
1772883301744654300,4.366654296875,0.33130836486816406,1.4585163593292236,0.7004438042640686
1772883301761249300,4.383249267578125,0.9669981002807617,1.068105697631836,0.8000903725624084
1772883301777871600,4.39987158203125,0.7828855514526367,0.5690727233886719,1.0005844831466675
1772883301794476000,4.41647607421875,-0.25612545013427734,0.09559416770935059,1.190531849861145
1772883301811081200,4.433081298828125,-0.8590936660766602,-0.05371451377868652,1.1846117973327637
1772883301827686400,4.449686279296875,-0.2922334671020508,-0.2918732166290283,0.8458664417266846
1772883301844291600,4.46629150390625,0.7009716033935547,-0.47325873374938965,0.47001412510871887
1772883301860897500,4.4828974609375,1.0519094467163086,-0.5496463775634766,0.13433504104614258
1772883301877500200,4.499500244140625,0.7313823699951172,-0.4042489528656006,0.06558158993721008
1772883301894107000,4.51610693359375,0.17642688751220703,-0.21113824844360352,0.16380590200424194
1772883301910709500,4.53270947265625,-0.1298055648803711,-0.04050302505493164,0.27624785900115967
1772883301927319800,4.54931982421875,-0.1444692611694336,0.0771493911743164,0.33753323554992676
1772883301943922400,4.56592236328125,-0.081146240234375,0.06662106513977051,0.3149409890174866
1772883301960507600,4.582507568359375,0.08521461486816406,-0.022188186645507812,0.2661982774734497
1772883301977114400,4.5991142578125,0.37765979766845703,-0.14807963371276855,0.1430019736289978
1772883301993728500,4.615728515625,0.7136945724487305,-0.256542444229126,-0.03542983531951904
1772883302010329000,4.6323291015625,0.6500034332275391,-0.26001882553100586,-0.12460678815841675
1772883302026933800,4.648933837890625,0.2418527603149414,-0.15480685234069824,-0.09031367301940918
1772883302043539700,4.665539794921875,-0.2509737014770508,-0.005687236785888672,-0.033790796995162964
1772883302060161300,4.682161376953125,-0.7460174560546875,0.16974139213562012,0.05247005820274353
1772883302076759600,4.698759521484375,-1.091355323791504,0.2853837013244629,0.07457408308982849
1772883302093372400,4.715372314453125,-1.3186321258544922,0.3680288791656494,0.09086287021636963
1772883302109973800,4.731973876953125,-1.226602554321289,0.42282676696777344,0.15367108583450317
1772883302126578700,4.74857861328125,-0.9403724670410156,0.40270471572875977,0.2513435184955597
1772883302143184000,4.765183837890625,-0.7490463256835938,0.38020968437194824,0.35126903653144836
1772883302159788500,4.78178857421875,-0.7518548965454102,0.4151182174682617,0.41293448209762573
1772883302176394000,4.79839404296875,-0.8997030258178711,0.4781022071838379,0.4179287552833557
1772883302192999200,4.814999267578125,-0.9307403564453125,0.5403506755828857,0.42023274302482605
1772883302209608000,4.83160791015625,-0.7941246032714844,0.5996136665344238,0.4143825173377991
1772883302226205700,4.848205810546875,-0.6260776519775391,0.7006165981292725,0.3713376224040985
1772883302242798000,4.864798095703125,-0.4421701431274414,0.8365316390991211,0.3791838586330414
1772883302259403500,4.881403564453125,-0.32783031463623047,1.0258831977844238,0.4794861376285553
1772883302275991800,4.89799169921875,-0.48211193084716797,1.1287002563476562,0.559838056564331
1772883302292619300,4.914619384765625,-0.5008716583251953,1.241830587387085,0.6110647916793823
1772883302309221600,4.9312216796875,-0.20336532592773438,1.2085561752319336,0.6798916459083557
1772883302325826300,4.947826416015625,0.23885440826416016,1.1373562812805176,0.753943681716919
1772883302342431500,4.964431396484375,0.5387535095214844,1.066800832748413,0.8800742626190186
1772883302359036400,4.981036376953125,0.7678251266479492,1.007065773010254,0.9985082149505615
1772883302375644200,4.99764404296875,1.0066804885864258,1.047128677368164,0.8741012811660767
1772883302392262400,5.014262451171875,0.8075447082519531,1.0889506340026855,0.7147375345230103
1772883302408866000,5.030865966796875,0.32935237884521484,1.21248197555542,0.5119858980178833
1772883302425471000,5.047470947265625,-0.02734088897705078,1.3764569759368896,0.3462178111076355
1772883302442076000,5.064075927734375,-0.2997560501098633,1.3688812255859375,0.4513391852378845
1772883302458681000,5.08068115234375,-0.25241756439208984,1.2663416862487793,0.6719417572021484
1772883302475286000,5.0972861328125,-0.15828800201416016,1.0592772960662842,1.0825058221817017
1772883302491891500,5.113891357421875,0.030707359313964844,0.7425518035888672,1.4553706645965576
1772883302508497000,5.130496826171875,0.24034500122070312,0.3699488639831543,1.5409448146820068
1772883302525101300,5.147101318359375,0.4279661178588867,0.029091835021972656,1.2392287254333496
1772883302541707000,5.16370703125,0.5602045059204102,-0.24404597282409668,0.8206466436386108
1772883302558311700,5.180311767578125,0.5956544876098633,-0.35016345977783203,0.6240519881248474
1772883302574913000,5.1969130859375,0.404327392578125,-0.3403351306915283,0.7638857960700989
1772883302591526100,5.213526123046875,0.2803916931152344,-0.18943119049072266,0.8993883728981018
1772883302608123600,5.23012353515625,0.05019950866699219,-0.11041474342346191,0.9897626042366028
1772883302624736300,5.246736328125,-0.2932729721069336,-0.03892397880554199,1.098191738128662
1772883302641345500,5.263345458984375,-0.5369882583618164,0.04615211486816406,1.2042815685272217
1772883302657942500,5.279942626953125,-0.5539703369140625,0.06292963027954102,1.1112346649169922
1772883302674543600,5.296543701171875,-0.3590555191040039,0.024190425872802734,0.9063910245895386
1772883302691156500,5.313156494140625,-0.022029876708984375,-0.04723000526428223,0.786536455154419
1772883302707754500,5.32975439453125,0.1791057586669922,-0.009530782699584961,0.8446025252342224
1772883302724361700,5.34636181640625,0.022733688354492188,0.1054849624633789,0.9330371022224426
1772883302740963300,5.36296337890625,-0.4858436584472656,0.17085504531860352,0.801734983921051
1772883302757560300,5.379560302734375,-1.0438003540039062,0.2687957286834717,0.5390278100967407
1772883302774162200,5.396162109375,-1.525179386138916,0.3377223014831543,0.2282281368970871
1772883302790772700,5.412772705078125,-1.6389079093933105,0.4500117301940918,0.04320758581161499
1772883302807375000,5.429375,-1.5819964408874512,0.5429143905639648,-0.058673471212387085
1772883302823979800,5.445979736328125,-1.5153913497924805,0.6452014446258545,-0.06997713446617126
1772883302840585500,5.46258544921875,-1.3536920547485352,0.7199795246124268,0.01646602153778076
1772883302857190100,5.479190185546875,-1.2677125930786133,0.7902491092681885,0.13594049215316772
1772883302873806800,5.495806884765625,-1.1969585418701172,0.9079601764678955,0.1707245111465454
1772883302890420000,5.512419921875,-1.014089584350586,1.0201306343078613,0.18943214416503906
1772883302907019800,5.529019775390625,-0.8711605072021484,1.1280248165130615,0.24279901385307312
1772883302923625000,5.545625,-0.8097171783447266,1.2116446495056152,0.2424607127904892
1772883302940229400,5.5622294921875,-1.0047473907470703,1.2916553020477295,0.1880788505077362
1772883302956834600,5.57883447265625,-1.1129646301269531,1.4338829517364502,0.22002656757831573
1772883302973437700,5.595437744140625,-1.0216064453125,1.5144293308258057,0.3202596604824066
1772883302990047200,5.612047119140625,-0.8360757827758789,1.5943715572357178,0.37821927666664124
1772883303006650600,5.628650634765625,-0.8016424179077148,1.6252350807189941,0.3350417912006378
1772883303023254800,5.6452548828125,-0.8263530731201172,1.6691884994506836,0.2406296581029892
1772883303039860700,5.66186083984375,-0.6408138275146484,1.6574161052703857,0.29455119371414185
1772883303056461800,5.6784619140625,-0.22200965881347656,1.5630805492401123,0.4441896677017212
1772883303073071400,5.6950712890625,0.1636524200439453,1.567775011062622,0.5512189865112305
1772883303089678800,5.711678955078125,0.4081888198852539,1.7562570571899414,0.5135497450828552
1772883303106281500,5.728281494140625,0.4790792465209961,1.820357322692871,0.6574496626853943
1772883303122886000,5.744885986328125,0.6486473083496094,1.9411561489105225,0.7153589725494385
1772883303139491600,5.76149169921875,0.8278894424438477,2.0905802249908447,0.5976089239120483
1772883303156096300,5.77809619140625,1.1686887741088867,2.0201220512390137,0.5547603368759155
1772883303172698600,5.79469873046875,1.8370733261108398,1.5931346416473389,0.6204847097396851
1772883303189309400,5.811309326171875,2.64333438873291,0.9109370708465576,0.7496989965438843
1772883303205912300,5.827912353515625,3.208315849304199,0.2877027988433838,0.938184380531311
1772883303222516500,5.8445166015625,3.2254419326782227,-0.15983104705810547,0.8596423268318176
1772883303239105300,5.861105224609375,2.7225141525268555,-0.47850847244262695,0.5233368277549744
1772883303255713500,5.877713623046875,1.9204368591308594,-0.6152722835540771,0.2362472414970398
1772883303272315100,5.894315185546875,0.9408245086669922,-0.6348733901977539,0.08752202987670898
1772883303288926500,5.910926513671875,-0.008351325988769531,-0.5303618907928467,0.0030015110969543457
1772883303305529000,5.927529052734375,-0.7920379638671875,-0.414996862411499,-0.023436635732650757
1772883303322139600,5.9441396484375,-1.2212114334106445,-0.3585042953491211,-0.03784143924713135
1772883303338739200,5.9607392578125,-1.0895881652832031,-0.39876365661621094,0.10659024119377136
1772883303355344000,5.97734375,-0.6057119369506836,-0.5162863731384277,0.3614293932914734
1772883303371963400,5.99396337890625,-0.42876720428466797,-0.6564602851867676,0.36545535922050476
1772883303388572000,6.010572021484375,-0.5512590408325195,-0.7341936826705933,0.3060813844203949
1772883303405173200,6.02717333984375,-0.6363887786865234,-0.7380558252334595,0.25947335362434387
1772883303421778200,6.043778076171875,-0.543065071105957,-0.7623581886291504,0.22608670592308044
1772883303438384000,6.060384033203125,-0.5398731231689453,-0.7786943912506104,0.20168618857860565
1772883303454994700,6.07699462890625,-0.758418083190918,-0.6998193264007568,0.18963822722434998
1772883303471583200,6.093583251953125,-1.1725425720214844,-0.5940399169921875,0.11376389861106873
1772883303488210000,6.1102099609375,-1.5041604042053223,-0.47377824783325195,0.052940547466278076
1772883303504797200,6.126797119140625,-1.4950566291809082,-0.3945786952972412,-0.023828744888305664
1772883303521409300,6.1434091796875,-1.4945259094238281,-0.2209017276763916,-0.012260377407073975
1772883303538014500,6.160014404296875,-1.5402164459228516,0.006976127624511719,0.18265630304813385
1772883303554617900,6.176617919921875,-1.573702335357666,0.19936823844909668,0.3878946900367737
1772883303571225900,6.193225830078125,-1.4201040267944336,0.22104549407958984,0.44371283054351807
1772883303587828000,6.209827880859375,-1.1761293411254883,0.2196054458618164,0.49171265959739685
1772883303604436200,6.226436279296875,-1.0552167892456055,0.26726531982421875,0.5672388076782227
1772883303621039600,6.24303955078125,-0.8160371780395508,0.3533470630645752,0.6571732759475708
1772883303637645600,6.2596455078125,-0.5981082916259766,0.3715970516204834,0.7054055333137512
1772883303654245600,6.27624560546875,-0.4709196090698242,0.44380617141723633,0.6564672589302063
1772883303670855700,6.292855712890625,-0.5581388473510742,0.5880389213562012,0.5014309883117676
1772883303687464400,6.30946435546875,-0.47254180908203125,0.7243824005126953,0.3780306279659271
1772883303704065500,6.3260654296875,-0.2866334915161133,0.8578112125396729,0.3188745081424713
1772883303720670700,6.342670654296875,-0.31496334075927734,1.0161359310150146,0.3799951672554016
1772883303737258800,6.3592587890625,-0.3458108901977539,1.1001513004302979,0.6679180860519409
1772883303753864000,6.375864013671875,-0.24603939056396484,1.1105353832244873,1.0418784618377686
1772883303770472200,6.39247216796875,0.11573028564453125,1.043968915939331,1.3180900812149048
1772883303787080700,6.409080810546875,0.6127414703369141,1.021787166595459,1.3255575895309448
1772883303803682600,6.4256826171875,0.9086389541625977,1.2599406242370605,1.348302960395813
1772883303820287200,6.442287353515625,1.0053300857543945,1.3461337089538574,1.5801472663879395
1772883303836893000,6.458892822265625,1.1350507736206055,1.39100980758667,1.6301636695861816
1772883303853500000,6.4755,1.1878395080566406,1.4330692291259766,1.6702829599380493
1772883303870111500,6.492111572265625,1.1790781021118164,1.2874114513397217,1.6659396886825562
1772883303886728400,6.508728515625,1.1213102340698242,0.9602668285369873,1.4577558040618896
1772883303903327500,6.525327392578125,1.0171079635620117,0.5777122974395752,1.3007336854934692
1772883303919925000,6.541925048828125,0.9851522445678711,0.26017093658447266,1.2153832912445068
1772883303936544000,6.5585439453125,0.9329938888549805,0.05524611473083496,1.1861947774887085
1772883303953148200,6.575148193359375,0.7494945526123047,-0.09210920333862305,1.1272379159927368
1772883303969737500,6.591737548828125,0.20960235595703125,-0.07271957397460938,0.9927156567573547
1772883303986356700,6.608356689453125,-0.23600292205810547,-0.00006413459777832031,0.8911594748497009
1772883304002958300,6.624958251953125,-0.0308837890625,-0.001016855239868164,1.0674587488174438
1772883304019562200,6.641562255859375,0.36394691467285156,-0.07745885848999023,1.2616790533065796
1772883304036168200,6.658168212890625,0.4433746337890625,-0.14140081405639648,1.3350781202316284
1772883304052772000,6.674772216796875,0.00435638427734375,-0.12191081047058105,1.2999438047409058
1772883304069364700,6.69136474609375,-0.4101142883300781,-0.04043149948120117,1.2793408632278442
1772883304085980700,6.707980712890625,-0.47400474548339844,-0.015104532241821289,1.3093985319137573
1772883304102589200,6.724589111328125,-0.31960391998291016,0.010118961334228516,1.346805214881897
1772883304119193300,6.741193359375,-0.18712806701660156,0.021908044815063477,1.3124034404754639
1772883304135798800,6.757798828125,-0.2689657211303711,0.03758668899536133,1.1827507019042969
1772883304152403700,6.77440380859375,-0.49544525146484375,0.10332608222961426,0.8812795877456665
1772883304169004000,6.791004150390625,-0.6599483489990234,0.11466097831726074,0.6224609613418579
1772883304185614000,6.807614013671875,-0.9975976943969727,0.2421581745147705,0.4792622923851013
1772883304202219500,6.824219482421875,-1.3452339172363281,0.45345139503479004,0.4078538417816162
1772883304218806800,6.840806884765625,-1.5531673431396484,0.6045436859130859,0.44120609760284424
1772883304235416000,6.857416015625,-1.6531047821044922,0.7031538486480713,0.5780919790267944
1772883304252021200,6.874021240234375,-1.5165925025939941,0.7911183834075928,0.6241990923881531
1772883304268626000,6.8906259765625,-1.2042560577392578,0.824193000793457,0.6074821949005127
1772883304285230800,6.90723095703125,-0.9874057769775391,0.8575544357299805,0.5114378333091736
1772883304301836500,6.92383642578125,-0.9500770568847656,0.8871979713439941,0.4521577060222626
1772883304318441500,6.94044140625,-1.008896827697754,0.9358830451965332,0.37541723251342773
1772883304335046100,6.957046142578125,-0.8547391891479492,1.0632052421569824,0.4113178849220276
1772883304351668200,6.973668212890625,-0.6134033203125,1.2008404731750488,0.3688465356826782
1772883304368270800,6.990270751953125,-0.47751426696777344,1.3401026725769043,0.19798922538757324
1772883304384876000,7.0068759765625,-0.5402498245239258,1.3838284015655518,0.04690366983413696
1772883304401480400,7.02348046875,-0.7108087539672852,1.4903852939605713,-0.016885876655578613
1772883304418086000,7.0400859375,-0.562469482421875,1.5697407722473145,0.010545730590820312
1772883304434690800,7.05669091796875,-0.22767353057861328,1.5972514152526855,0.13262158632278442
1772883304451295700,7.073295654296875,0.16093730926513672,1.5543043613433838,0.2453010082244873
1772883304467901200,7.089901123046875,0.33625030517578125,1.4941580295562744,0.23140794038772583
1772883304484505900,7.106505859375,0.2428874969482422,1.5208046436309814,-0.12963145971298218
1772883304501094700,7.1230947265625,-0.21703720092773438,1.5884430408477783,-0.40575462579727173
1772883304517714400,7.13971435546875,-0.4185495376586914,1.565145492553711,-0.48502832651138306
1772883304534324200,7.15632421875,-0.07122039794921875,1.6392560005187988,-0.32281428575515747
1772883304550926600,7.172926513671875,0.2508869171142578,1.6337130069732666,-0.09001243114471436
1772883304567532300,7.1895322265625,0.3506908416748047,1.5123460292816162,0.03138834238052368
1772883304584137000,7.206136962890625,0.3946714401245117,1.3825087547302246,-0.07351130247116089
1772883304600742700,7.22274267578125,0.7529830932617188,1.066429615020752,0.013186037540435791
1772883304617346600,7.2393466796875,1.2911787033081055,0.6673471927642822,0.28677257895469666
1772883304633952800,7.255952880859375,1.986466407775879,0.25546789169311523,0.5408464670181274
1772883304650557400,7.272557373046875,2.3774490356445312,-0.11375880241394043,0.6388166546821594
1772883304667162600,7.28916259765625,2.3591928482055664,-0.5882771015167236,0.548711895942688
1772883304683767600,7.305767578125,1.8963956832885742,-0.8899893760681152,0.2805496156215668
1772883304700373500,7.32237353515625,0.8440618515014648,-0.9298633337020874,0.09398496150970459
1772883304716960500,7.33896044921875,-0.3853483200073242,-0.6923079490661621,0.10853391885757446
1772883304733569300,7.3555693359375,-1.173619270324707,-0.473655104637146,0.25106218457221985
1772883304750174200,7.37217431640625,-1.4153070449829102,-0.41725897789001465,0.3925672173500061
1772883304766779600,7.388779541015625,-1.168914794921875,-0.39995574951171875,0.43295958638191223
1772883304783384800,7.405384765625,-0.6830301284790039,-0.4490828514099121,0.46832090616226196
1772883304799990000,7.421989990234375,-0.47829151153564453,-0.5326998233795166,0.4626639485359192
1772883304816594700,7.4385947265625,-0.623356819152832,-0.5171886682510376,0.38504260778427124
1772883304833200000,7.4552001953125,-0.7848644256591797,-0.4916410446166992,0.20536628365516663
1772883304849805800,7.471805908203125,-0.6489124298095703,-0.4802091121673584,0.1574920415878296
1772883304866420200,7.488420166015625,-0.35138797760009766,-0.4029909372329712,0.3440982699394226
1772883304883032600,7.505032470703125,-0.22924518585205078,-0.3252675533294678,0.5056848526000977
1772883304899618800,7.521618896484375,-0.5534791946411133,-0.22977161407470703,0.4193609356880188
1772883304916239600,7.538239501953125,-0.9428167343139648,-0.10126566886901855,0.22026482224464417
1772883304932844000,7.554843994140625,-1.1360883712768555,-0.02501535415649414,0.16478478908538818
1772883304949449000,7.571448974609375,-1.2008781433105469,0.1247711181640625,0.2747994363307953
1772883304966055400,7.588055419921875,-1.2269573211669922,0.2518939971923828,0.6013417840003967
1772883304982659600,7.60465966796875,-1.1296091079711914,0.3299853801727295,0.9119806289672852
1772883304999265300,7.621265380859375,-0.9589710235595703,0.3374340534210205,0.9866567254066467
1772883305015870200,7.6378701171875,-0.8287334442138672,0.31241869926452637,0.8298298120498657
1772883305032475400,7.654475341796875,-0.7182502746582031,0.3124973773956299,0.6234492063522339
1772883305049080000,7.671080078125,-0.6640291213989258,0.35170960426330566,0.5651980638504028
1772883305065686000,7.68768603515625,-0.6817178726196289,0.5484652519226074,0.5862749814987183
1772883305082290000,7.7042900390625,-0.6832208633422852,0.7671070098876953,0.6337847709655762
1772883305098896100,7.720896240234375,-0.5092592239379883,0.9629228115081787,0.7487272620201111
1772883305115501300,7.737501220703125,-0.13843822479248047,1.0429530143737793,0.8434876799583435
1772883305132105700,7.754105712890625,0.32581424713134766,1.0024781227111816,0.8726264238357544
1772883305148708000,7.7707080078125,0.7129707336425781,0.9084217548370361,0.8518358469009399
1772883305165316400,7.78731640625,1.0445117950439453,0.815603494644165,0.8520492315292358
1772883305181921800,7.803921875,1.4218358993530273,0.7972493171691895,0.8143882751464844
1772883305198509000,7.820509033203125,1.684823989868164,0.875237226486206,0.7347877025604248
1772883305215117600,7.83711767578125,1.5228443145751953,1.0578253269195557,0.5267266631126404
1772883305231723300,7.85372314453125,1.0037126541137695,1.2256584167480469,0.2767482399940491
1772883305248328000,7.870327880859375,0.4820289611816406,1.4418559074401855,0.07134559750556946
1772883305264933000,7.88693310546875,0.056400299072265625,1.5756878852844238,0.23709866404533386
1772883305281538000,7.9035380859375,0.33307456970214844,1.4891302585601807,0.6146211624145508
1772883305298143700,7.920143798828125,1.2615461349487305,1.0149765014648438,0.7934803366661072
1772883305314748400,7.93674853515625,1.6917715072631836,0.4537203311920166,0.6910010576248169
1772883305331353600,7.953353515625,1.246708869934082,0.10915756225585938,0.4612672030925751
1772883305347975200,7.96997509765625,0.5932779312133789,-0.08929157257080078,0.37240540981292725
1772883305364578300,7.986578369140625,0.21752548217773438,-0.10866522789001465,0.39087796211242676
1772883305381182500,8.003182373046876,0.23330116271972656,-0.09050989151000977,0.41278836131095886
1772883305397788000,8.019787841796875,0.48906517028808594,-0.18626189231872559,0.4213574528694153
1772883305414393000,8.03639306640625,0.6880464553833008,-0.3654165267944336,0.5269261598587036
1772883305430998000,8.052998046875,0.5044269561767578,-0.45407867431640625,0.8311973810195923
1772883305447602700,8.069602783203125,-0.05466175079345703,-0.38808369636535645,1.1357548236846924
1772883305464187600,8.086187744140625,-0.5824918746948242,-0.20569753646850586,1.338629961013794
1772883305480799000,8.102799072265626,-0.8584585189819336,-0.0799870491027832,1.4902032613754272
1772883305497399800,8.11939990234375,-0.7122430801391602,-0.011020660400390625,1.5274240970611572
1772883305514012200,8.13601220703125,-0.3884000778198242,-0.025854110717773438,1.541170597076416
1772883305530628400,8.15262841796875,-0.30260753631591797,-0.03939533233642578,1.5989151000976562
1772883305547233300,8.1692333984375,-0.4458742141723633,0.11760497093200684,1.5896130800247192
1772883305563839500,8.185839599609375,-0.7476015090942383,0.24243664741516113,1.315497636795044
1772883305580444000,8.20244384765625,-1.1986865997314453,0.37337279319763184,0.8388227224349976
1772883305597049300,8.21904931640625,-1.6287660598754883,0.5224614143371582,0.5044206380844116
1772883305613654500,8.235654541015625,-1.6871013641357422,0.6619141101837158,0.4043274223804474
1772883305630259500,8.252259521484374,-1.5229005813598633,0.7561731338500977,0.548424243927002
1772883305646864100,8.268864013671875,-1.2744522094726562,0.8351867198944092,0.6351794004440308
1772883305663470300,8.28547021484375,-0.8419761657714844,0.8498580455780029,0.6471071243286133
1772883305680074200,8.30207421875,-0.5616226196289062,0.8598613739013672,0.6295387744903564
1772883305696663000,8.3186630859375,-0.49366188049316406,0.8741023540496826,0.4936043620109558
1772883305713271600,8.335271484375,-0.6295413970947266,0.8683011531829834,0.37675419449806213
1772883305729876500,8.35187646484375,-0.9335613250732422,0.9675636291503906,0.260956734418869
1772883305746481200,8.368481201171875,-1.0545482635498047,1.116011619567871,0.3007507920265198
1772883305763086800,8.3850869140625,-0.9459323883056641,1.220184564590454,0.3344503343105316
1772883305779691800,8.40169189453125,-0.7245969772338867,1.3102691173553467,0.32504963874816895
1772883305796296700,8.418296630859375,-0.7165622711181641,1.353628158569336,0.3201596140861511
1772883305812902000,8.43490185546875,-0.9562234878540039,1.457132339477539,0.25237131118774414
1772883305829511000,8.451510986328126,-0.7710657119750977,1.4818830490112305,0.29079118371009827
1772883305846126000,8.4681259765625,-0.30276012420654297,1.39896559715271,0.49299556016921997
1772883305862731000,8.48473095703125,0.21802902221679688,1.315061330795288,0.6526293754577637
1772883305879336400,8.50133642578125,0.6650114059448242,1.3411476612091064,0.6085827350616455
1772883305895941400,8.51794140625,0.7076902389526367,1.4886260032653809,0.3010728657245636
1772883305912546800,8.534546875,0.5417985916137695,1.4163014888763428,0.04448944330215454
1772883305929151700,8.55115185546875,0.7665929794311523,1.3641700744628906,-0.24540677666664124
1772883305945756400,8.56775634765625,0.9318161010742188,1.3413372039794922,-0.24290090799331665
1772883305962361900,8.58436181640625,0.6639766693115234,1.3113789558410645,-0.09074762463569641
1772883305978967300,8.60096728515625,0.4710416793823242,1.3156592845916748,0.09883621335029602
1772883305995571700,8.61757177734375,0.8596153259277344,1.0074081420898438,0.2856971323490143
1772883306012177200,8.63417724609375,1.5958337783813477,0.4249880313873291,0.5170542001724243
1772883306028783000,8.650783203125,2.159611701965332,-0.1693427562713623,0.5828726291656494
1772883306045387300,8.66738720703125,2.247018814086914,-0.6935787200927734,0.5318806171417236
1772883306061992200,8.6839921875,1.8100652694702148,-0.9513016939163208,0.354236900806427
1772883306078597600,8.70059765625,0.8579320907592773,-0.9812856912612915,0.16000941395759583
1772883306095202600,8.71720263671875,-0.2070322036743164,-0.9341011047363281,-0.03731074929237366
1772883306111808300,8.733808349609374,-0.6827411651611328,-0.7694101333618164,0.014263898134231567
1772883306128413400,8.750413330078125,-0.6048641204833984,-0.8124098777770996,0.15515920519828796
1772883306144999700,8.766999755859375,-0.45906829833984375,-0.8222882747650146,0.19005703926086426
1772883306161631200,8.78363134765625,-0.38439273834228516,-0.7105526924133301,0.2686308026313782
1772883306178211600,8.800211669921875,-0.6746635437011719,-0.6005866527557373,0.42302045226097107
1772883306194819600,8.816819580078125,-1.1242341995239258,-0.4147329330444336,0.5088392496109009
1772883306211422200,8.833422119140625,-1.333815574645996,-0.28487443923950195,0.5325686931610107
1772883306228030500,8.850030517578125,-1.045074462890625,-0.35847020149230957,0.5289798378944397
1772883306244630500,8.866630615234374,-0.5471248626708984,-0.5316832065582275,0.5145491361618042
1772883306261244400,8.883244384765625,-0.025943756103515625,-0.581437349319458,0.65550696849823
1772883306277845000,8.899844970703125,0.12434101104736328,-0.5625348091125488,0.6620555520057678
1772883306294450700,8.91645068359375,-0.4185600280761719,-0.39490628242492676,0.6394076347351074
1772883306311055600,8.9330556640625,-1.026656150817871,-0.1704401969909668,0.45867663621902466
1772883306327661600,8.94966162109375,-1.0486392974853516,-0.08467650413513184,0.34004053473472595
1772883306344280600,8.966280517578125,-0.7149219512939453,-0.12851428985595703,0.3156914710998535
1772883306360885000,8.982885009765624,-0.5284881591796875,-0.21016192436218262,0.32403314113616943
1772883306377490000,8.999489990234375,-0.5772800445556641,-0.17088079452514648,0.43253299593925476
1772883306394094800,9.0160947265625,-0.738128662109375,0.025466442108154297,0.6109486818313599
1772883306410683600,9.03268359375,-0.7683372497558594,0.19258546829223633,0.7156928777694702
1772883306427305000,9.049304931640625,-0.8112115859985352,0.35393786430358887,0.6355953812599182
1772883306443909000,9.0659091796875,-0.8958206176757812,0.4372742176055908,0.4573868215084076
1772883306460508700,9.0825087890625,-0.8243436813354492,0.5382728576660156,0.43348443508148193
1772883306477120500,9.09912060546875,-0.7762699127197266,0.705329179763794,0.5148086547851562
1772883306493709000,9.115708984375,-0.7584362030029297,0.8552556037902832,0.6081400513648987
1772883306510330600,9.13233056640625,-0.6418972015380859,0.9387626647949219,0.6818349361419678
1772883306526935800,9.148935791015624,-0.5243253707885742,1.0425946712493896,0.6490494608879089
1772883306543524000,9.165524169921875,-0.31665897369384766,1.0648243427276611,0.5189027190208435
1772883306560146400,9.182146484375,-0.0767059326171875,1.0071134567260742,0.5443533658981323
1772883306576751000,9.198751220703125,0.24510955810546875,0.8528926372528076,0.7162157297134399
1772883306593356000,9.21535595703125,0.4201946258544922,0.8106682300567627,0.943999707698822
1772883306609961000,9.2319609375,0.5237369537353516,0.8732080459594727,0.7609004974365234
1772883306626566700,9.248566650390625,0.39213085174560547,1.0928244590759277,0.39149099588394165
1772883306643155000,9.265155029296874,0.19662857055664062,1.2666525840759277,0.3094950318336487
1772883306659776800,9.28177685546875,0.43155956268310547,1.4742043018341064,0.2586134672164917
1772883306676364300,9.2983642578125,0.5401859283447266,1.5654211044311523,0.2561931610107422
1772883306692973300,9.314973388671875,0.4973440170288086,1.3514206409454346,0.5218443870544434
1772883306709578500,9.33157861328125,0.9348812103271484,0.9450058937072754,0.7667688727378845
1772883306726183400,9.348183349609375,1.757516860961914,0.24097871780395508,0.8889807462692261
1772883306742788400,9.364788330078126,2.334527015686035,-0.33321595191955566,0.743776798248291
1772883306759394000,9.38139404296875,2.278763771057129,-0.7079241275787354,0.5178980827331543
1772883306775998700,9.397998779296875,1.7558698654174805,-0.9195728302001953,0.5499210357666016
1772883306792604200,9.414604248046874,1.1520700454711914,-0.8214755058288574,0.5971341729164124
1772883306809208800,9.431208740234375,0.7546672821044922,-0.8464784622192383,0.5033735632896423
1772883306825831400,9.44783154296875,0.24484539031982422,-0.8892531394958496,0.29904037714004517
1772883306842432800,9.464432861328126,-0.31470775604248047,-0.7865824699401855,0.45927882194519043
1772883306859038200,9.4810380859375,-0.35388660430908203,-0.6887383460998535,0.936218798160553
1772883306875643100,9.49764306640625,-0.007822990417480469,-0.7980492115020752,1.3144733905792236
1772883306892248800,9.514248779296874,-0.7375307083129883,-0.7095715999603271,1.0409603118896484
1772883306908853500,9.530853515625,-1.2954216003417969,-0.5412037372589111,0.9365084171295166
1772883306925452500,9.54745263671875,-1.5043535232543945,-0.4278895854949951,1.0917065143585205
1772883306942046700,9.564046630859375,-1.4760117530822754,-0.39226627349853516,1.3414711952209473
1772883306958669300,9.58066943359375,-1.1644477844238281,-0.3437032699584961,1.4180355072021484
1772883306975274000,9.59727392578125,-1.042154312133789,-0.3841063976287842,1.3910291194915771
