time,seconds_elapsed,z,y,x
1772883297514496800,0.136496826171875,0.12171489745378494,-0.14416420459747314,0.16798794269561768
1772883297531100400,0.153100341796875,0.0910189226269722,-0.08246681094169617,0.06750060617923737
1772883297547711200,0.169711181640625,0.044287730008363724,-0.06811147183179855,-0.04444044828414917
1772883297564316200,0.186316162109375,0.03344487398862839,-0.07712173461914062,-0.13759739696979523
1772883297580919600,0.20291943359375,0.06627888232469559,-0.09666942805051804,-0.16951510310173035
1772883297597526300,0.2195263671875,0.13347405195236206,-0.1440114825963974,-0.1595885455608368
1772883297614150000,0.23614990234375,0.21731531620025635,-0.12538009881973267,-0.10705413669347763
1772883297630764800,0.252764892578125,0.25824329257011414,-0.1339322030544281,-0.07009678333997726
1772883297647354600,0.269354736328125,0.3116939961910248,-0.08643743395805359,-0.05619960278272629
1772883297663958800,0.285958740234375,0.3355177342891693,-0.06643159687519073,-0.04398229718208313
1772883297680559000,0.30255908203125,0.3266601860523224,-0.06688974797725677,-0.08170322328805923
1772883297697174800,0.3191748046875,0.31459560990333557,0.04581489413976669,-0.08888089656829834
1772883297713773000,0.33577294921875,0.2825251817703247,0.0529925599694252,-0.08460483700037003
1772883297730368300,0.3523681640625,0.25763240456581116,0.0010690141934901476,-0.08994990587234497
1772883297746986000,0.368986083984375,0.21884247660636902,-0.02076941914856434,-0.09193521738052368
1772883297763588900,0.3855888671875,0.19562959671020508,-0.004123340360820293,-0.076052725315094
1772883297780193000,0.402193115234375,0.1966986060142517,0.027030786499381065,-0.07254024595022202
1772883297796800300,0.41880029296875,0.2015855312347412,0.03634648025035858,-0.10293079167604446
1772883297813402400,0.43540234375,0.18600846827030182,-0.0024434609804302454,-0.09804387390613556
1772883297829996500,0.45199658203125,0.17058411240577698,-0.076052725315094,-0.04749477282166481
1772883297846612700,0.46861279296875,0.1408044397830963,-0.1569923609495163,-0.01237002108246088
1772883297863221000,0.485220947265625,0.09957103431224823,-0.1238529309630394,-0.0429132841527462
1772883297879823000,0.501822998046875,0.07223481684923172,-0.02275473065674305,-0.08124507963657379
1772883297896465000,0.51846484375,0.033597588539123535,0.05650503560900688,-0.05100724846124649
1772883297913033700,0.53503369140625,-0.016951510682702065,0.02825251780450344,0.021991148591041565
1772883297929629700,0.551629638671875,-0.06475171446800232,-0.06688974797725677,0.11621711403131485
1772883297946248200,0.568248291015625,-0.10873401165008545,-0.17073683440685272,0.18066339194774628
1772883297962848800,0.584848876953125,-0.15729780495166779,-0.230448916554451,0.17516560852527618
1772883297979454000,0.601453857421875,-0.22220222651958466,-0.31230485439300537,0.10522153973579407
1772883297996032000,0.618031982421875,-0.2961169183254242,-0.33292156457901,0.06398813426494598
1772883298012650200,0.634650146484375,-0.34284812211990356,-0.22602014243602753,0.09834930300712585
1772883298029243000,0.651242919921875,-0.34926220774650574,-0.14446963369846344,0.16982053220272064
1772883298045865000,0.667864990234375,-0.3139847218990326,-0.06200282275676727,0.2721404731273651
1772883298062468900,0.68446875,-0.27259862422943115,-0.05375614017248154,0.3246748745441437
1772883298079073300,0.7010732421875,-0.3217732608318329,-0.19394971430301666,0.23625212907791138
1772883298095678200,0.71767822265625,-0.3706424832344055,-0.24892759323120117,0.12079860270023346
1772883298112283100,0.734283203125,-0.40225476026535034,-0.25274550914764404,0.003054326167330146
1772883298128879900,0.7508798828125,-0.45921793580055237,-0.24953845143318176,-0.18677204847335815
1772883298145507600,0.767507568359375,-0.5500841736793518,-0.1547016203403473,-0.3828597962856293
1772883298162111000,0.784111083984375,-0.6588181853294373,-0.04734205827116966,-0.593302845954895
1772883298178714400,0.80071435546875,-0.7209737300872803,0.12889257073402405,-0.7594582438468933
1772883298195306200,0.81730615234375,-0.7145596146583557,0.3222314119338989,-0.8481863737106323
1772883298211927000,0.833927001953125,-0.6785185933113098,0.4564690589904785,-0.8350527882575989
1772883298228505600,0.850505615234375,-0.5963571667671204,0.593302845954895,-0.7174612283706665
1772883298245137400,0.867137451171875,-0.4265366494655609,0.6243042945861816,-0.5280929803848267
1772883298261741300,0.8837412109375,-0.23258693516254425,0.5093088746070862,-0.2921462953090668
1772883298278345700,0.900345703125,-0.039706241339445114,0.22770002484321594,-0.01970040425658226
1772883298294937300,0.916937255859375,0.10247264802455902,-0.10354165732860565,0.2393064647912979
1772883298311555600,0.9335556640625,0.14767667651176453,-0.4004221558570862,0.4011857509613037
1772883298328146700,0.950146728515625,0.09896016865968704,-0.5803219676017761,0.3874412775039673
1772883298344768500,0.9667685546875,0.005650503560900688,-0.5926920175552368,0.17638733983039856
1772883298361377000,0.983376953125,-0.0835358202457428,-0.3903428912162781,-0.09712757170200348
1772883298377977600,0.9999775390625,-0.1586722433567047,-0.11438451707363129,-0.30115658044815063
1772883298394568200,1.016568115234375,-0.22739458084106445,0.14156801998615265,-0.3625485301017761
1772883298411187500,1.0331875,-0.2932153046131134,0.28069257736206055,-0.2791654169559479
1772883298427793700,1.049793701171875,-0.34116822481155396,0.23365595936775208,-0.1281289905309677
1772883298444400600,1.066400634765625,-0.35613444447517395,0.08445212244987488,-0.006872233934700489
1772883298461005300,1.08300537109375,-0.3321579694747925,-0.04489859566092491,0.018936822190880775
1772883298477606000,1.09960595703125,-0.2912299931049347,-0.13607023656368256,-0.06918048858642578
1772883298494252000,1.116251953125,-0.23380866646766663,-0.11759155988693237,-0.20128010213375092
1772883298510799000,1.132799072265625,-0.17287486791610718,-0.07956519722938538,-0.2941316068172455
1772883298527405300,1.1494052734375,-0.11133018881082535,-0.06322455406188965,-0.2860376536846161
1772883298544016000,1.166015869140625,-0.06368270516395569,-0.0403171069920063,-0.20234911143779755
1772883298560619300,1.182619384765625,-0.016493361443281174,-0.0065668015740811825,-0.09697485715150833
1772883298577225700,1.199225830078125,0.03634648025035858,-0.011759156361222267,-0.0328340083360672
1772883298593830000,1.215829833984375,0.09896016865968704,-0.04382958263158798,0.0003054326225537807
1772883298610434600,1.2324345703125,0.16600263118743896,-0.015577063895761967,0.05757404863834381
1772883298627057700,1.2490576171875,0.23518311977386475,0.03145955875515938,0.07971791177988052
1772883298643657200,1.2656572265625,0.28817567229270935,0.048105638474226,0.043676864355802536
1772883298660260000,1.282260009765625,0.32268956303596497,0.0529925599694252,0.02015855349600315
1772883298676876800,1.298876708984375,0.3572034537792206,0.06200282275676727,0.029626963660120964
1772883298693473500,1.3154736328125,0.38469240069389343,0.021074850112199783,0.05115996301174164
1772883298710063900,1.33206396484375,0.4173736870288849,-0.04688390716910362,0.07956519722938538
1772883298726667500,1.34866748046875,0.4434881806373596,-0.039706241339445114,0.15745051205158234
1772883298743295500,1.36529541015625,0.44058656692504883,-0.01664607785642147,0.18997909128665924
1772883298759889700,1.3818896484375,0.41981714963912964,-0.0024434609804302454,0.11682797968387604
1772883298776498700,1.398498779296875,0.3637702465057373,-0.036651913076639175,-0.023365596309304237
1772883298793089300,1.41508935546875,0.2793181240558624,-0.09804387390613556,-0.18096883594989777
1772883298809708800,1.431708740234375,0.2148718535900116,-0.07299839705228806,-0.251676470041275
1772883298826326800,1.448326904296875,0.1875356286764145,0.02122756652534008,-0.22708915174007416
1772883298842922800,1.4649228515625,0.18478673696517944,0.10873401165008545,-0.1488984078168869
1772883298859522600,1.4815224609375,0.1921171247959137,0.13897185027599335,-0.10567969083786011
1772883298876131600,1.498131591796875,0.20295998454093933,0.14553864300251007,-0.08124507963657379
1772883298892734200,1.514734130859375,0.23609942197799683,0.13148874044418335,0.021991148591041565
1772883298909346600,1.5313466796875,0.304210901260376,0.10980302840471268,0.256868839263916
1772883298925934300,1.547934326171875,0.40194934606552124,0.12507465481758118,0.5470298528671265
1772883298942549800,1.5645498046875,0.45784351229667664,0.13148874044418335,0.7079927921295166
1772883298959154200,1.581154296875,0.4758640229701996,0.013286318629980087,0.6899722814559937
1772883298975760000,1.597759765625,0.43905940651893616,-0.09193521738052368,0.599564254283905
1772883298992348000,1.614347900390625,0.3602577745914459,-0.2076941877603531,0.4164573848247528
1772883299008956700,1.630956787109375,0.3010038435459137,-0.2588541507720947,0.2509129047393799
1772883299025562400,1.647562255859375,0.28909197449684143,-0.15806138515472412,0.19257527589797974
1772883299042179800,1.664179931640625,0.28588494658470154,-0.003817907767370343,0.18157969415187836
1772883299058771700,1.680771728515625,0.24602597951889038,0.13179416954517365,0.13576480746269226
1772883299075379000,1.69737890625,0.18020524084568024,0.16279558837413788,0.02871066704392433
1772883299091986700,1.713986572265625,0.13729196786880493,0.08506298810243607,-0.04184427112340927
1772883299108589300,1.73058935546875,0.10842858254909515,-0.03634648025035858,-0.06414084881544113
1772883299125191700,1.747191650390625,0.10797043144702911,-0.12858712673187256,-0.05467243865132332
1772883299141794600,1.763794677734375,0.13148874044418335,-0.09315694868564606,-0.0019853119738399982
1772883299158401800,1.78040185546875,0.16004669666290283,-0.001679879380390048,0.028557950630784035
1772883299175021600,1.797021484375,0.17302757501602173,0.0705549344420433,0.06001751124858856
1772883299191612700,1.81361279296875,0.1814269721508026,0.04963280260562897,0.12186761945486069
1772883299208211000,1.8302109375,0.20005837082862854,-0.0659734457731247,0.2093740701675415
1772883299224829700,1.84682958984375,0.1941024363040924,-0.12003502249717712,0.34895676374435425
1772883299241466600,1.863466552734375,0.1540907621383667,-0.10399980843067169,0.47800204157829285
1772883299258048000,1.880048095703125,0.1059851199388504,-0.0013744467869400978,0.5378668308258057
1772883299274653000,1.89665283203125,0.06108652427792549,0.1160643994808197,0.5410739183425903
1772883299291238700,1.91323876953125,0.03130684420466423,0.19792033731937408,0.5360342264175415
1772883299307862500,1.929862548828125,-0.010231993161141872,0.1716531366109848,0.5271766781806946
1772883299324465000,1.94646484375,-0.05864306539297104,0.1134682223200798,0.5112941861152649
1772883299341078500,1.96307861328125,-0.11636982858181,0.044287730008363724,0.475253164768219
1772883299357677600,1.979677490234375,-0.17256943881511688,-0.044135015457868576,0.39736783504486084
1772883299374292200,1.996292236328125,-0.19135354459285736,-0.06811147183179855,0.2889392673969269
1772883299390859800,2.01285986328125,-0.21013765037059784,-0.07788532227277756,0.1498146951198578
1772883299407496000,2.029495849609375,-0.2541199326515198,-0.08888089656829834,0.03726277872920036
1772883299424095500,2.046095458984375,-0.3222314119338989,-0.07757988572120667,-0.012064588256180286
1772883299440704500,2.06270458984375,-0.38026362657546997,-0.11316278576850891,-0.01725694350898266
1772883299457310200,2.079310302734375,-0.41340306401252747,-0.17272214591503143,-0.05451972410082817
1772883299473911600,2.09591162109375,-0.4262312352657318,-0.16569720208644867,-0.11392636597156525
1772883299490500000,2.1125,-0.4156937897205353,-0.10873401165008545,-0.1290452778339386
1772883299507118600,2.12911865234375,-0.36483925580978394,-0.05513058975338936,-0.09605856239795685
1772883299523715600,2.145715576171875,-0.2952006161212921,0.004428773187100887,-0.05406157299876213
1772883299540319200,2.1623193359375,-0.27458393573760986,-0.007024950347840786,-0.09834930300712585
1772883299556926000,2.178926025390625,-0.28817567229270935,-0.10247264802455902,-0.2664899528026581
1772883299573529300,2.195529296875,-0.3243694305419922,-0.19318613409996033,-0.44165557622909546
1772883299590134800,2.212134765625,-0.35216382145881653,-0.17470745742321014,-0.5274821519851685
1772883299606757400,2.22875732421875,-0.33307427167892456,-0.018936822190880775,-0.5177083015441895
1772883299623358500,2.2453583984375,-0.27229318022727966,0.1388191282749176,-0.43539419770240784
1772883299639961900,2.2619619140625,-0.19089539349079132,0.23365595936775208,-0.29794952273368835
1772883299656569000,2.278569091796875,-0.12003502249717712,0.2194533348083496,-0.13209961354732513
1772883299673174300,2.29517431640625,-0.06536258012056351,0.08720101416110992,-0.003817907767370343
1772883299689763300,2.311763427734375,-0.012217304669320583,-0.07971791177988052,0.09575312584638596
1772883299706390800,2.328390869140625,0.03573561832308769,-0.2148718535900116,0.21212296187877655
1772883299722971000,2.344970947265625,0.06444628536701202,-0.2587014436721802,0.3309362530708313
1772883299739597000,2.36159716796875,0.04734205827116966,-0.18967366218566895,0.40133845806121826
1772883299756200700,2.37820068359375,-0.014049900695681572,-0.09010262042284012,0.3859141170978546
1772883299772802800,2.394802734375,-0.07712173461914062,-0.06887505948543549,0.27000242471694946
1772883299789398300,2.411398193359375,-0.14874568581581116,-0.10384709388017654,0.08139779418706894
1772883299806015500,2.428015380859375,-0.21731531620025635,-0.12919799983501434,-0.12751811742782593
1772883299822615600,2.444615478515625,-0.2503020465373993,-0.07147123664617538,-0.22892175614833832
1772883299839227600,2.4612275390625,-0.2454151064157486,0.042760565876960754,-0.21090123057365417
1772883299855830000,2.477830078125,-0.2116648107767105,0.15836681425571442,-0.14935655891895294
1772883299872462600,2.494462646484375,-0.16493362188339233,0.26343563199043274,-0.0806342139840126
1772883299889025500,2.511025634765625,-0.11438451707363129,0.24419337511062622,-0.06368270516395569
1772883299905645000,2.52764501953125,-0.05772676691412926,0.16752979159355164,-0.05497787147760391
1772883299922246400,2.544246337890625,0.006261368747800589,0.060475658625364304,-0.06811147183179855
1772883299938857500,2.560857421875,0.07422012835741043,-0.03176499158143997,-0.10186178237199783
1772883299955465700,2.5774658203125,0.13988813757896423,-0.03084869496524334,-0.11331550031900406
1772883299972066600,2.594066650390625,0.17608191072940826,0.02687807008624077,-0.0858265683054924
1772883299988641800,2.610641845703125,0.18967366218566895,0.06765332818031311,-0.04886921867728233
1772883300005267500,2.627267333984375,0.1963931769132614,0.05772676691412926,-0.04138612002134323
1772883300021864400,2.643864501953125,0.20357084274291992,0.008704829961061478,-0.02733621932566166
1772883300038471200,2.66047119140625,0.21090123057365417,-0.018020525574684143,0.019089538604021072
1772883300055080200,2.677080078125,0.21441370248794556,0.0007635815418325365,0.03497203439474106
1772883300071681300,2.693681396484375,0.22357667982578278,0.08078692853450775,-0.006261368747800589
1772883300088291300,2.710291259765625,0.23518311977386475,0.17959438264369965,-0.050243668258190155
1772883300104905500,2.726905517578125,0.25641068816185,0.20570887625217438,-0.05711590126156807
1772883300121506800,2.7435068359375,0.26481008529663086,0.13057245314121246,-0.04046982154250145
1772883300138121700,2.760121826171875,0.27122417092323303,0.02474004216492176,-0.024587325751781464
1772883300154722800,2.776722900390625,0.2796235680580139,-0.05696318298578262,-0.009926560334861279
1772883300171325700,2.79332568359375,0.2942843437194824,-0.04352414980530739,-0.014813481830060482
1772883300187916800,2.809916748046875,0.2831360399723053,0.004886921960860491,-0.024892758578062057
1772883300204537600,2.82653759765625,0.2541199326515198,0.04703662544488907,-0.022449297830462456
1772883300221139500,2.843139404296875,0.23869559168815613,0.1014036312699318,0.015577063895761967
1772883300237752600,2.859752685546875,0.25931230187416077,0.1898263692855835,0.07651086896657944
1772883300254355200,2.876355224609375,0.2919935882091522,0.20494529604911804,0.12721268832683563
1772883300270956000,2.8929560546875,0.2964223623275757,0.22602014243602753,0.1111774742603302
1772883300287543800,2.909543701171875,0.2750420868396759,0.21212296187877655,-0.0024434609804302454
1772883300304155000,2.92615478515625,0.2064724564552307,0.1137736514210701,-0.21563543379306793
1772883300320768800,2.942768798828125,0.0936150997877121,-0.012980886735022068,-0.4862487316131592
1772883300337371400,2.959371337890625,-0.008399397134780884,-0.1333213448524475,-0.6440047025680542
1772883300353971200,2.97597119140625,-0.08536841720342636,-0.12324206531047821,-0.6374378800392151
1772883300370572500,2.992572509765625,-0.11133018881082535,-0.010690141469240189,-0.5125159621238708
1772883300387170800,3.0091708984375,-0.052228979766368866,0.23915374279022217,-0.2724458873271942
1772883300403795000,3.025794921875,0.06352998316287994,0.365755558013916,-0.010995574295520782
1772883300420407000,3.042406982421875,0.21135938167572021,0.35033121705055237,0.26862800121307373
1772883300437008400,3.05900830078125,0.31001409888267517,0.28787025809288025,0.50335294008255
1772883300453613300,3.07561328125,0.33460143208503723,0.1062905490398407,0.5876523852348328
1772883300470218800,3.09221875,0.3349068760871887,-0.10430523753166199,0.5134322643280029
1772883300486797000,3.108797119140625,0.3338378667831421,-0.21899518370628357,0.3517056703567505
1772883300503431700,3.125431640625,0.2935207486152649,-0.1771509200334549,0.17669276893138885
1772883300520020200,3.142020263671875,0.21899518370628357,-0.03848451003432274,-0.010690141469240189
1772883300536626200,3.158626220703125,0.14966198801994324,0.06551529467105865,-0.1713477075099945
1772883300553232100,3.175232177734375,0.12263119965791702,0.07009678333997726,-0.27519479393959045
1772883300569835800,3.191835693359375,0.13225232064723969,0.033139441162347794,-0.2984076738357544
1772883300586481700,3.208481689453125,0.16752979159355164,0.015118914656341076,-0.24892759323120117
1772883300603088400,3.22508837890625,0.2116648107767105,0.04963280260562897,-0.17241671681404114
1772883300619662300,3.241662353515625,0.27229318022727966,0.1293507218360901,-0.1059851199388504
1772883300636274000,3.25827392578125,0.3199406862258911,0.16890424489974976,-0.05849034711718559
1772883300652876000,3.2748759765625,0.3387247920036316,0.12308934330940247,-0.044135015457868576
1772883300669479000,3.29147900390625,0.34284812211990356,0.03329215571284294,-0.05497787147760391
1772883300686061600,3.3080615234375,0.3306308090686798,-0.048105638474226,-0.07910704612731934
1772883300702710800,3.324710693359375,0.3055853247642517,-0.09682214260101318,-0.08338310569524765
1772883300719292700,3.341292724609375,0.27977627515792847,-0.12247848510742188,-0.04932736977934837
1772883300735886300,3.35788623046875,0.24190263450145721,-0.09376781433820724,-0.01237002108246088
1772883300752491800,3.37449169921875,0.18096883594989777,-0.009010262787342072,-0.004581489134579897
1772883300769094700,3.3910947265625,0.09346238523721695,0.024129176512360573,-0.006108652334660292
1772883300785706000,3.4077060546875,0.003512475173920393,0.0012217304902151227,0.009621127508580685
1772883300802322400,3.424322509765625,-0.05803219974040985,-0.02886338345706463,0.06520986557006836
1772883300818927600,3.440927734375,-0.1007927656173706,-0.09529497474431992,0.1618792861700058
1772883300835531300,3.45753125,-0.14569136500358582,-0.13988813757896423,0.2480112910270691
1772883300852113400,3.474113525390625,-0.22327125072479248,-0.19135354459285736,0.22647829353809357
1772883300868742700,3.49074267578125,-0.3196352422237396,-0.16035212576389313,0.13637566566467285
1772883300885332000,3.50733203125,-0.41370847821235657,-0.0884227454662323,0.03298672288656235
1772883300901952300,3.5239521484375,-0.49266281723976135,-0.0679587572813034,-0.037110064178705215
1772883300918553000,3.540552978515625,-0.5401576161384583,-0.06352998316287994,-0.04505131021142006
1772883300935171600,3.557171630859375,-0.5551238059997559,-0.042760565876960754,-0.007024950347840786
1772883300951765000,3.573764892578125,-0.5277875661849976,0.001832595793530345,0.06658431142568588
1772883300968369000,3.590368896484375,-0.4911356568336487,0.00931569468230009,0.14278975129127502
1772883300984964600,3.606964599609375,-0.4709770977497101,-0.04444044828414917,0.18585574626922607
1772883301001569800,3.62356982421875,-0.46792277693748474,-0.04230241850018501,0.17776179313659668
1772883301018157600,3.640157470703125,-0.49327367544174194,-0.08933904021978378,0.07254024595022202
1772883301034779000,3.65677880859375,-0.5461135506629944,-0.2678644061088562,-0.1699732542037964
1772883301051382300,3.67338232421875,-0.6168211698532104,-0.38927388191223145,-0.447000652551651
1772883301067997700,3.689997802734375,-0.6366742849349976,-0.2542726695537567,-0.5890268087387085
1772883301084591600,3.706591552734375,-0.6018549799919128,0.04566217586398125,-0.5381723046302795
1772883301101213000,3.723212890625,-0.4990769028663635,0.3094032406806946,-0.2773328125476837
1772883301117817300,3.7398173828125,-0.375071257352829,0.3761402666568756,0.09773843735456467
1772883301134426000,3.756426025390625,-0.26282477378845215,0.2099849283695221,0.4011857509613037
1772883301151026000,3.77302587890625,-0.18539759516716003,-0.06475171446800232,0.5705481171607971
1772883301167637800,3.7896376953125,-0.14538592100143433,-0.2474004179239273,0.6472117304801941
1772883301184239600,3.806239501953125,-0.16584990918636322,-0.33047810196876526,0.6081163287162781
1772883301200824000,3.822823974609375,-0.23380866646766663,-0.347276896238327,0.4784601926803589
1772883301217435600,3.839435546875,-0.304669052362442,-0.3019201457500458,0.3280346393585205
1772883301234057500,3.856057373046875,-0.35934147238731384,-0.22189679741859436,0.18829920887947083
1772883301250656500,3.872656494140625,-0.3793473243713379,-0.10980302840471268,0.08368854224681854
1772883301267269600,3.88926953125,-0.39217549562454224,0.03436116874217987,0.029932396486401558
1772883301283853800,3.905853759765625,-0.38728857040405273,0.14049901068210602,0.009010262787342072
1772883301300494000,3.922494140625,-0.3790418803691864,0.20326541364192963,0.02519819140434265
1772883301317067000,3.93906689453125,-0.3312416672706604,0.1635591685771942,0.04566217586398125
1772883301333687000,3.95568701171875,-0.2716823220252991,0.07620543986558914,0.07864890247583389
1772883301350287000,3.972287109375,-0.22770002484321594,-0.03237585723400116,0.07116580009460449
1772883301366899200,3.988899169921875,-0.1966986060142517,-0.11514809727668762,-0.013744467869400978
1772883301383501000,4.0055009765625,-0.1722639948129654,-0.11850785464048386,-0.13271047174930573
1772883301400086000,4.0220859375,-0.14996741712093353,-0.10491610318422318,-0.2154827117919922
1772883301416706800,4.038706787109375,-0.10308351367712021,-0.04382958263158798,-0.18585574626922607
1772883301433320000,4.05531982421875,-0.04642575979232788,0.02871066704392433,-0.10965031385421753
1772883301449919000,4.0719189453125,0.02168571576476097,0.07956519722938538,-0.04382958263158798
1772883301466513000,4.088512939453125,0.08185594528913498,0.08307767659425735,-0.010231993161141872
1772883301483118000,4.1051181640625,0.10644327104091644,0.043218716979026794,-0.012675453908741474
1772883301499722500,4.121722412109375,0.09926560521125793,0.013439035043120384,-0.00366519158706069
1772883301516338200,4.138338134765625,0.09254608303308487,-0.005039638374000788,0.016340645030140877
1772883301532934000,4.154933837890625,0.10308351367712021,-0.014966198243200779,0.019394971430301666
1772883301549535700,4.17153564453125,0.12217304855585098,0.029932396486401558,0.01664607785642147
1772883301566163000,4.188162841796875,0.14706580340862274,0.10170906037092209,0.008399397134780884
1772883301582746000,4.20474609375,0.1615738570690155,0.09941831976175308,-0.010995574295520782
1772883301599373000,4.221373046875,0.16722436249256134,0.06780604273080826,0.014355333521962166
1772883301615991600,4.237991455078125,0.18341228365898132,0.09178250283002853,0.0656680166721344
1772883301632574000,4.254573974609375,0.23350323736667633,0.17577648162841797,0.10720685124397278
1772883301649179600,4.2711796875,0.2692388594150543,0.25076019763946533,0.13484850525856018
1772883301665792300,4.287792236328125,0.30054569244384766,0.24648413062095642,0.09987647086381912
1772883301682395100,4.30439501953125,0.31062498688697815,0.24785856902599335,0.07360926270484924
1772883301698997800,4.320997802734375,0.289702832698822,0.20234911143779755,0.04535674303770065
1772883301715599400,4.337599365234375,0.24892759323120117,0.0503963828086853,-0.060475658625364304
1772883301732237600,4.354237548828125,0.1875356286764145,-0.12079860270023346,-0.21533000469207764
1772883301748816000,4.37081591796875,0.15027284622192383,-0.2002110779285431,-0.3263547718524933
1772883301765416200,4.387416259765625,0.13026700913906097,-0.17776179313659668,-0.2165517359972
1772883301782024000,4.40402392578125,0.11102475970983505,-0.06383541971445084,0.010537425056099892
1772883301798629600,4.420629638671875,0.10002918541431427,-0.10048733651638031,-0.01924225501716137
1772883301815232500,4.437232421875,0.055741455405950546,-0.19715675711631775,-0.24572055041790009
1772883301831838200,4.453838134765625,0.06414084881544113,-0.21807889640331268,-0.3972151279449463
1772883301848444700,4.470444580078125,0.12919799983501434,-0.020922135561704636,-0.2926044464111328
1772883301865057800,4.487057861328125,0.23090706765651703,0.08475755155086517,-0.08307767659425735
1772883301881650400,4.503650390625,0.3110831379890442,0.06185010448098183,0.08964447677135468
1772883301898263000,4.520262939453125,0.33628132939338684,-0.04764748737215996,0.14798210561275482
1772883301914849500,4.536849609375,0.3237585723400116,-0.1293507218360901,0.1189660057425499
1772883301931475000,4.553474853515625,0.2854267954826355,-0.14263702929019928,0.056352317333221436
1772883301948069400,4.5700693359375,0.24892759323120117,-0.10766500234603882,-0.03222314268350601
1772883301964668700,4.586668701171875,0.22082778811454773,-0.02321287989616394,-0.12767083942890167
1772883301981252600,4.603252685546875,0.21074850857257843,0.04153883829712868,-0.17058411240577698
1772883301997875500,4.61987548828125,0.23808473348617554,0.09468411654233932,-0.10949759185314178
1772883302014484000,4.63648388671875,0.2770273983478546,0.13820825517177582,-0.0013744467869400978
1772883302031086300,4.65308642578125,0.30344730615615845,0.13377949595451355,0.06368270516395569
1772883302047689200,4.669689208984375,0.3142901659011841,0.14645494520664215,0.09682214260101318
1772883302064318000,4.68631787109375,0.3013092875480652,0.14034628868103027,0.08857546001672745
1772883302080900600,4.702900634765625,0.2802344262599945,0.11652254313230515,0.0529925599694252
1772883302097520400,4.719520263671875,0.25793784856796265,0.05253441259264946,-0.01771509274840355
1772883302114122500,4.73612255859375,0.23671028017997742,0.012828170321881771,-0.07666359096765518
1772883302130736400,4.752736328125,0.21533000469207764,0.005039638374000788,-0.07864890247583389
1772883302147341600,4.769341552734375,0.19425514340400696,0.025045474991202354,-0.04077525436878204
1772883302163936300,4.785936279296875,0.16829337179660797,0.06459899991750717,-0.0027488935738801956
1772883302180543500,4.80254345703125,0.14416420459747314,0.06979135423898697,0.01038470957428217
1772883302197155800,4.81915576171875,0.1189660057425499,0.024587325751781464,0.010079276748001575
1772883302213771000,4.83577099609375,0.10415252298116684,0.0009162978967651725,0.03634648025035858
1772883302230361900,4.85236181640625,0.08811730891466141,-0.05009094998240471,0.08597928285598755
1772883302246964200,4.868964111328125,0.06688974797725677,-0.08796459436416626,0.15073099732398987
1772883302263557000,4.88555712890625,0.021991148591041565,-0.08628471940755844,0.20555615425109863
1772883302280150500,4.902150634765625,-0.02779436856508255,-0.06582073122262955,0.18035796284675598
1772883302296769800,4.918769775390625,-0.09178250283002853,-0.12492194026708603,0.12110403180122375
1772883302313371400,4.935371337890625,-0.15347988903522491,-0.20173825323581696,0.076052725315094
1772883302329985000,4.951985107421875,-0.19685132801532745,-0.20861047506332397,0.06169738993048668
1772883302346581800,4.968581787109375,-0.24007004499435425,-0.16081027686595917,0.04245513305068016
1772883302363190000,4.98518994140625,-0.2877175211906433,-0.06902777403593063,0.036041051149368286
1772883302379805400,5.001805419921875,-0.31322115659713745,0.07147123664617538,0.10903944820165634
1772883302396410000,5.01841015625,-0.32039880752563477,0.08781187981367111,0.19562959671020508
1772883302413019000,5.035018798828125,-0.3214678466320038,-0.019547687843441963,0.20876319706439972
1772883302429619500,5.051619384765625,-0.32940909266471863,-0.13041973114013672,0.1368338167667389
1772883302446237700,5.06823779296875,-0.3523165285587311,-0.19822576642036438,-0.02977968007326126
1772883302462834200,5.084834228515625,-0.37537670135498047,-0.19532416760921478,-0.20387627184391022
1772883302479439000,5.101439208984375,-0.4343251883983612,-0.17806722223758698,-0.35384368896484375
1772883302496043300,5.118043212890625,-0.5115996599197388,-0.09453139454126358,-0.46853363513946533
1772883302512646000,5.13464599609375,-0.569631814956665,0.062460970133543015,-0.5248859524726868
1772883302529255200,5.151255126953125,-0.5532912015914917,0.22311852872371674,-0.48059824109077454
1772883302545859800,5.16785986328125,-0.4605923891067505,0.2477058619260788,-0.31001409888267517
1772883302562468400,5.18446826171875,-0.3396410644054413,0.12339477986097336,-0.0455094613134861
1772883302579053300,5.20105322265625,-0.25473082065582275,-0.02672535367310047,0.1869247704744339
1772883302595675100,5.217675048828125,-0.21365012228488922,-0.17348572611808777,0.3698789179325104
1772883302612262000,5.234261962890625,-0.19654589891433716,-0.21823160350322723,0.4662429094314575
1772883302628887000,5.250886962890625,-0.19822576642036438,-0.18997909128665924,0.4280638098716736
1772883302645491000,5.267490966796875,-0.24648413062095642,-0.1267545372247696,0.29397889971733093
1772883302662095600,5.284095703125,-0.2889392673969269,-0.07895433157682419,0.12232576310634613
1772883302678684700,5.3006845703125,-0.2970332205295563,-0.10445795953273773,-0.0032070425804704428
1772883302695305000,5.317304931640625,-0.26801711320877075,-0.14324790239334106,-0.048105638474226
1772883302711891700,5.3338916015625,-0.244804248213768,-0.07987063378095627,-0.04001167416572571
1772883302728515600,5.350515625,-0.24908030033111572,0.06108652427792549,-0.02733621932566166
1772883302745100500,5.3671005859375,-0.24174992740154266,0.15057829022407532,-0.03405573591589928
1772883302761715000,5.38371484375,-0.23121249675750732,0.15592335164546967,-0.055894169956445694
1772883302778306000,5.40030615234375,-0.1837177276611328,0.1264491081237793,-0.1186605766415596
1772883302794923000,5.416923095703125,-0.128434419631958,0.06414084881544113,-0.16630806028842926
1772883302811525000,5.433525146484375,-0.0656680166721344,-0.00427605677396059,-0.1774563491344452
1772883302828137200,5.45013720703125,-0.00045814894838258624,-0.06994406878948212,-0.1843285858631134
1772883302844737500,5.466737548828125,0.05146539583802223,-0.10445795953273773,-0.18555031716823578
1772883302861343500,5.483343505859375,0.09315694868564606,-0.05864306539297104,-0.21212296187877655
1772883302877942300,5.4999423828125,0.1342376321554184,0.005497787147760391,-0.2574796974658966
1772883302894566700,5.516566650390625,0.17119498550891876,0.04886921867728233,-0.2480112910270691
1772883302911170600,5.533170654296875,0.1973094791173935,0.060322944074869156,-0.19074267148971558
1772883302927780000,5.549780029296875,0.21838432550430298,0.043218716979026794,-0.11301007121801376
1772883302944383200,5.56638330078125,0.25305092334747314,0.042760565876960754,-0.07406741380691528
1772883302960983300,5.5829833984375,0.2779437005519867,0.02932153269648552,-0.08429940044879913
1772883302977588200,5.599588134765625,0.2893974184989929,0.05849034711718559,-0.09987647086381912
1772883302994198300,5.6161982421875,0.29168814420700073,0.10674870014190674,-0.09651670604944229
1772883303010799600,5.632799560546875,0.2996293902397156,0.1595885455608368,-0.08399397134780884
1772883303027412200,5.649412109375,0.32650747895240784,0.16539175808429718,-0.09712757170200348
1772883303044013600,5.666013671875,0.3445279896259308,0.11545353382825851,-0.08979719132184982
1772883303060602400,5.682602294921875,0.3550654351711273,0.027641652151942253,-0.036651913076639175
1772883303077211000,5.6992109375,0.3465133011341095,-0.06062837690114975,0.06627888232469559
1772883303093827800,5.715827880859375,0.33460143208503723,-0.13271047174930573,0.14737124741077423
1772883303110436600,5.7324365234375,0.29046642780303955,-0.2122756689786911,0.11041389405727386
1772883303127033600,5.74903369140625,0.2344195395708084,-0.12232576310634613,-0.0429132841527462
1772883303143648800,5.765648681640625,0.17058411240577698,-0.007024950347840786,-0.28496864438056946
1772883303160248300,5.782248291015625,0.09498954564332962,0.010995574295520782,-0.541532039642334
1772883303176843000,5.798843017578125,0.02580905705690384,0.0032070425804704428,-0.7041749358177185
1772883303193459700,5.815459716796875,0.008857546374201775,0.03084869496524334,-0.6826419234275818
1772883303210061600,5.8320615234375,0.012675453908741474,0.07757988572120667,-0.4925101101398468
1772883303226669000,5.8486689453125,0.03680463135242462,0.08552113175392151,-0.20005837082862854
1772883303243262200,5.86526220703125,0.11148291081190109,0.1267545372247696,0.08689557760953903
1772883303259866600,5.88186669921875,0.21334469318389893,0.21899518370628357,0.33139440417289734
1772883303276458500,5.89845849609375,0.3026837408542633,0.28817567229270935,0.5129740834236145
1772883303293076000,5.915075927734375,0.36560285091400146,0.29168814420700073,0.6044511795043945
1772883303309678600,5.9316787109375,0.403781920671463,0.20204368233680725,0.5842925906181335
1772883303326290400,5.94829052734375,0.42302417755126953,0.04153883829712868,0.4879286289215088
1772883303342892000,5.96489208984375,0.4213443100452423,-0.1033889427781105,0.3927863538265228
1772883303359496700,5.98149658203125,0.3868304193019867,-0.08277224004268646,0.35705074667930603
1772883303376104700,5.998104736328125,0.36483925580978394,0.0007635815418325365,0.30833423137664795
1772883303392721200,6.01472119140625,0.35674530267715454,0.04596760869026184,0.21670444309711456
1772883303409328600,6.03132861328125,0.35445454716682434,0.04535674303770065,0.12492194026708603
1772883303425928700,6.0479287109375,0.35445454716682434,0.035582900047302246,0.08597928285598755
1772883303442536700,6.06453662109375,0.36911532282829285,0.07895433157682419,0.08628471940755844
1772883303459158500,6.081158447265625,0.3787364661693573,0.13408492505550385,0.09498954564332962
1772883303475735000,6.097735107421875,0.39125919342041016,0.1927279829978943,0.0708603709936142
1772883303492382700,6.1143828125,0.41111230850219727,0.1921171247959137,0.012217304669320583
1772883303508953300,6.130953369140625,0.44837507605552673,0.166460782289505,0.003054326167330146
1772883303525566500,6.14756640625,0.4834998548030853,0.0887281745672226,0.027183502912521362
1772883303542167000,6.1641669921875,0.4853324294090271,0.004581489134579897,0.01924225501716137
1772883303558767900,6.180767822265625,0.44226643443107605,-0.027488935738801956,-0.03741549700498581
1772883303575373000,6.197373046875,0.4043927788734436,-0.035582900047302246,-0.09758572280406952
1772883303591979800,6.213979736328125,0.3741549551486969,-0.01038470957428217,-0.11743884533643723
1772883303608584400,6.23058447265625,0.33948835730552673,0.02672535367310047,-0.13179416954517365
1772883303625195800,6.24719580078125,0.2886338233947754,0.06520986557006836,-0.1310305893421173
1772883303641798400,6.26379833984375,0.23105977475643158,0.13118331134319305,-0.08659014850854874
1772883303658386700,6.28038671875,0.17623461782932281,0.17730364203453064,-0.010079276748001575
1772883303674987500,6.296987548828125,0.13836097717285156,0.15806138515472412,0.04352414980530739
1772883303691617000,6.313616943359375,0.11316278576850891,0.08231408894062042,0.08445212244987488
1772883303708214800,6.33021484375,0.09972374886274338,0.04352414980530739,0.1492038369178772
1772883303724824300,6.34682421875,0.07971791177988052,-0.031612277030944824,0.17989981174468994
1772883303741415200,6.363415283203125,0.01542434748262167,-0.1241583600640297,0.13607023656368256
1772883303758007600,6.380007568359375,-0.07513642311096191,-0.13454307615756989,0.023518312722444534
1772883303774612500,6.396612548828125,-0.17852537333965302,-0.13118331134319305,-0.08124507963657379
1772883303791230500,6.41323046875,-0.23686300218105316,-0.03039054572582245,-0.1088867336511612
1772883303807832600,6.42983251953125,-0.2845104932785034,0.09315694868564606,-0.10170906037092209
1772883303824443100,6.446443115234375,-0.3654501438140869,0.20525072515010834,-0.13958270847797394
1772883303841046000,6.4630458984375,-0.44257187843322754,0.3842342495918274,-0.20906862616539001
1772883303857662200,6.479662109375,-0.5342016816139221,0.5169447064399719,-0.2955060601234436
1772883303874239200,6.4962392578125,-0.6333145499229431,0.5160284042358398,-0.3790418803691864
1772883303890884600,6.512884521484375,-0.6873761415481567,0.4060726761817932,-0.4075998365879059
1772883303907469800,6.5294697265625,-0.6944010853767395,0.2733621895313263,-0.4004221558570862
1772883303924058000,6.54605810546875,-0.6708827614784241,0.20952677726745605,-0.34116822481155396
1772883303940694300,6.5626943359375,-0.6331618428230286,0.17898350954055786,-0.21609358489513397
1772883303957318100,6.579318115234375,-0.5699372887611389,0.1417207419872284,-0.02687807008624077
1772883303973879800,6.5958798828125,-0.4964807331562042,0.03985895588994026,0.1293507218360901
1772883303990509800,6.612509765625,-0.4314235746860504,-0.15042556822299957,0.1690569519996643
1772883304007109000,6.629109130859375,-0.4066835343837738,-0.24007004499435425,0.21533000469207764
1772883304023717400,6.64571728515625,-0.4017966091632843,-0.20723603665828705,0.2997821271419525
1772883304040320800,6.66232080078125,-0.4057672321796417,-0.17821992933750153,0.39736783504486084
1772883304056923000,6.6789228515625,-0.40714168548583984,-0.18600846827030182,0.3998112976551056
1772883304073546800,6.695546630859375,-0.4141666293144226,-0.2594650089740753,0.299476683139801
1772883304090130400,6.71213037109375,-0.4236350357532501,-0.2770273983478546,0.17318029701709747
1772883304106748700,6.728748779296875,-0.4363104999065399,-0.22999076545238495,0.08781187981367111
1772883304123340500,6.745340576171875,-0.4524984359741211,-0.13820825517177582,0.030085112899541855
1772883304139951400,6.761951416015625,-0.4537201523780823,0.053297992795705795,-0.017867809161543846
1772883304156556300,6.778556396484375,-0.42898011207580566,0.18784105777740479,-0.05451972410082817
1772883304173159200,6.7951591796875,-0.3666718602180481,0.21365012228488922,-0.01970040425658226
1772883304189770200,6.811770263671875,-0.299476683139801,0.14217889308929443,0.036041051149368286
1772883304206369000,6.828369140625,-0.24572055041790009,-0.0022907445672899485,0.04245513305068016
1772883304222963200,6.844963134765625,-0.20784689486026764,-0.0682641938328743,-0.009926560334861279
1772883304239569000,6.86156884765625,-0.18005253374576569,-0.04001167416572571,-0.12629638612270355
1772883304256174000,6.878174072265625,-0.15806138515472412,0.003359758760780096,-0.25793784856796265
1772883304272779300,6.894779296875,-0.12721268832683563,0.050243668258190155,-0.3113885521888733
1772883304289383400,6.911383544921875,-0.08994990587234497,0.0328340083360672,-0.2958115041255951
1772883304305991700,6.92799169921875,-0.04153883829712868,-0.018936822190880775,-0.26511552929878235
1772883304322592500,6.944592529296875,0.015577063895761967,-0.08185594528913498,-0.2612976133823395
1772883304339199700,6.96119970703125,0.06017022579908371,-0.13347405195236206,-0.24617868661880493
1772883304355821000,6.977821044921875,0.0910189226269722,-0.12629638612270355,-0.1973094791173935
1772883304372419600,6.994419677734375,0.12797626852989197,-0.098502017557621,-0.14538592100143433
1772883304389032700,7.01103271484375,0.18799377977848053,-0.04795292019844055,-0.09941831976175308
1772883304405635000,7.027635009765625,0.23900102078914642,-0.12553280591964722,-0.1033889427781105
1772883304422238000,7.044238037109375,0.27229318022727966,-0.22418753802776337,-0.09147707372903824
1772883304438840000,7.060840087890625,0.27580565214157104,-0.244804248213768,-0.06322455406188965
1772883304455453200,7.077453125,0.26282477378845215,-0.16737708449363708,-0.016798794269561768
1772883304472054300,7.09405419921875,0.24404066801071167,0.012828170321881771,0.026572637259960175
1772883304488658700,7.11065869140625,0.2692388594150543,0.21013765037059784,0.049785517156124115
1772883304505264400,7.127264404296875,0.3072652220726013,0.24923302233219147,0.026419922709465027
1772883304521860000,7.143860107421875,0.34315356612205505,0.10476338863372803,-0.023060163483023643
1772883304538475800,7.160475830078125,0.34926220774650574,-0.019394971430301666,0.00045814894838258624
1772883304555079200,7.1770791015625,0.3066543638706207,-0.1693623960018158,0.06322455406188965
1772883304571685000,7.19368505859375,0.25503623485565186,-0.3269656300544739,0.04856378585100174
1772883304588290000,7.2102900390625,0.24190263450145721,-0.3295617997646332,-0.12431107461452484
1772883304604895500,7.2268955078125,0.2626720666885376,-0.12919799983501434,-0.3778201639652252
1772883304621499400,7.24349951171875,0.27259862422943115,0.10751228034496307,-0.5351179838180542
1772883304638105300,7.260105224609375,0.2675589919090271,0.19349156320095062,-0.4873177409172058
1772883304654710800,7.276710693359375,0.26022860407829285,0.18738290667533875,-0.2597704529762268
1772883304671312100,7.29331201171875,0.30405816435813904,0.1267545372247696,0.05513058975338936
1772883304687917000,7.3099169921875,0.41981714963912964,0.1973094791173935,0.38667771220207214
1772883304704532700,7.32653271484375,0.5487096905708313,0.304210901260376,0.5781839489936829
1772883304721113900,7.34311376953125,0.6241515874862671,0.2739730477333069,0.5568036437034607
1772883304737722400,7.359722412109375,0.627358615398407,0.17821992933750153,0.3900374472141266
1772883304754326800,7.376326904296875,0.6064364910125732,0.12629638612270355,0.16233743727207184
1772883304770932700,7.3929326171875,0.5781839489936829,0.14355333149433136,-0.016951510682702065
1772883304787537700,7.40953759765625,0.5476406812667847,0.16890424489974976,-0.0685696229338646
1772883304804142300,7.426142333984375,0.5181664228439331,0.1518000066280365,-0.06704246252775192
1772883304820748000,7.442748046875,0.4902193546295166,0.10445795953273773,-0.10399980843067169
1772883304837353200,7.459353271484375,0.4957171380519867,0.046273041516542435,-0.1966986060142517
1772883304853976000,7.47597607421875,0.5241223573684692,0.025656340643763542,-0.25671613216400146
1772883304870557400,7.492557373046875,0.5294674634933472,0.07406741380691528,-0.24419337511062622
1772883304887181600,7.509181640625,0.5048801302909851,0.16233743727207184,-0.16401731967926025
1772883304903787800,7.525787841796875,0.48808133602142334,0.21181751787662506,-0.11407908797264099
1772883304920397300,7.542397216796875,0.5038111209869385,0.166460782289505,-0.12217304855585098
1772883304936998000,7.558997802734375,0.527634859085083,0.05375614017248154,-0.10674870014190674
1772883304953601500,7.5756015625,0.5221370458602905,-0.1437060534954071,-0.05665775015950203
1772883304970204200,7.5922041015625,0.4590652287006378,-0.3104722499847412,-0.03145955875515938
1772883304986820600,7.608820556640625,0.3562871515750885,-0.32879820466041565,-0.05772676691412926
1772883305003411700,7.62541162109375,0.2588541507720947,-0.20387627184391022,-0.10995574295520782
1772883305020025900,7.64202587890625,0.20234911143779755,-0.04657847434282303,-0.1488984078168869
1772883305036628700,7.658628662109375,0.17638733983039856,-0.01191187184303999,-0.1290452778339386
1772883305053233200,7.675233154296875,0.15057829022407532,-0.08185594528913498,-0.0377209298312664
1772883305069834800,7.691834716796875,0.10216721147298813,-0.21991148591041565,0.05864306539297104
1772883305086441200,7.708441162109375,0.03084869496524334,-0.3208569586277008,0.08246681094169617
1772883305103053600,7.725053466796875,-0.05696318298578262,-0.3419318199157715,0.046731192618608475
1772883305119651600,7.741651611328125,-0.15821409225463867,-0.3104722499847412,-0.009468411095440388
1772883305136263400,7.758263427734375,-0.2551889419555664,-0.2217440903186798,-0.05803219974040985
1772883305152863500,7.774863525390625,-0.32849279046058655,-0.15134187042713165,-0.09896016865968704
1772883305169474800,7.791474853515625,-0.38835757970809937,-0.1186605766415596,-0.11911872029304504
1772883305186065000,7.80806494140625,-0.4366159439086914,-0.09911288321018219,-0.08597928285598755
1772883305202666800,7.824666748046875,-0.4738787114620209,-0.04841107130050659,0.02886338345706463
1772883305219270000,7.841269775390625,-0.5021312236785889,-0.04581489413976669,0.13515393435955048
1772883305235876400,7.85787646484375,-0.5169447064399719,-0.047800205647945404,0.13484850525856018
1772883305252481300,7.874481201171875,-0.5175555944442749,-0.0029016099870204926,0.015271631069481373
1772883305269086200,7.891086181640625,-0.5630650520324707,-0.05665775015950203,-0.20799961686134338
1772883305285687600,7.9076875,-0.6701191663742065,-0.2756529450416565,-0.3888157308101654
1772883305302301000,7.924301025390625,-0.7625125646591187,-0.3695734739303589,-0.33826664090156555
1772883305318900700,7.940900634765625,-0.765566885471344,-0.21273382008075714,-0.14294247329235077
1772883305335510500,7.957510498046875,-0.7040221691131592,-0.003054326167330146,-0.04138612002134323
1772883305352124400,7.97412451171875,-0.6091853380203247,0.2736676335334778,-0.0806342139840126
1772883305368727000,7.99072705078125,-0.5120577812194824,0.545655369758606,-0.13255776464939117
1772883305385340400,8.00734033203125,-0.4309654235839844,0.5540547966957092,-0.05711590126156807
1772883305401940700,8.023940673828125,-0.35445454716682434,0.3182607889175415,0.17119498550891876
1772883305418545400,8.04054541015625,-0.2727513313293457,0.05207626149058342,0.4560109078884125
1772883305435152000,8.05715185546875,-0.20693060755729675,-0.0731511116027832,0.6485861539840698
1772883305451756000,8.073756103515626,-0.1745547503232956,-0.10812314599752426,0.6695083379745483
1772883305468341200,8.09034130859375,-0.18646661937236786,-0.16310101747512817,0.5493205785751343
1772883305484958200,8.106958251953126,-0.21624629199504852,-0.15806138515472412,0.34147366881370544
1772883305501556000,8.123555908203125,-0.22876903414726257,-0.11621711403131485,0.15683965384960175
1772883305518181000,8.14018115234375,-0.22449298202991486,-0.009926560334861279,0.08032877743244171
1772883305534782200,8.1567822265625,-0.2154827117919922,0.1316414624452591,0.07788532227277756
1772883305551385900,8.1733857421875,-0.2370157092809677,0.21013765037059784,0.10873401165008545
1772883305567988700,8.18998876953125,-0.25335636734962463,0.20861047506332397,0.1560760736465454
1772883305584601900,8.206601806640625,-0.2223549485206604,0.11316278576850891,0.18325957655906677
1772883305601202400,8.223202392578125,-0.17027868330478668,-0.06154467165470123,0.15027284622192383
1772883305617806800,8.239806884765626,-0.12110403180122375,-0.19226983189582825,0.06185010448098183
1772883305634412800,8.256412841796875,-0.10155634582042694,-0.18799377977848053,-0.05742133408784866
1772883305651017500,8.273017578125,-0.0884227454662323,-0.14309518039226532,-0.1647808998823166
1772883305667619000,8.289619140625,-0.07391469180583954,-0.09392052888870239,-0.17211128771305084
1772883305684228000,8.30622802734375,-0.06001751124858856,-0.056810468435287476,-0.10705413669347763
1772883305700819500,8.3228193359375,-0.030695978552103043,-0.050854530185461044,-0.028405234217643738
1772883305717424600,8.339424560546876,0.025503624230623245,0.001832595793530345,0.04566217586398125
1772883305734029800,8.35602978515625,0.09300423413515091,0.04230241850018501,0.06704246252775192
1772883305750633700,8.3726337890625,0.13057245314121246,0.033597588539123535,0.07864890247583389
1772883305767240000,8.389239990234374,0.14538592100143433,-0.005650503560900688,0.1189660057425499
1772883305783845000,8.40584521484375,0.14996741712093353,-0.07391469180583954,0.19837848842144012
1772883305800450000,8.422449951171876,0.15424346923828125,-0.04214970022439957,0.25793784856796265
1772883305817054500,8.439054443359375,0.16508632898330688,-0.023060163483023643,0.18646661937236786
1772883305833677300,8.45567724609375,0.17638733983039856,-0.02687807008624077,0.1088867336511612
1772883305850279000,8.47227880859375,0.15821409225463867,-0.01572977937757969,0.11133018881082535
1772883305866884400,8.48888427734375,0.1342376321554184,-0.04535674303770065,0.16569720208644867
1772883305883488500,8.505488525390625,0.09285151958465576,0.0009162978967651725,0.2376265823841095
1772883305900099000,8.52209912109375,0.0936150997877121,0.13408492505550385,0.23808473348617554
1772883305916695300,8.5386953125,0.13026700913906097,0.15500704944133759,0.1661553531885147
1772883305933304600,8.5553046875,0.1966986060142517,0.12996158003807068,0.1563815027475357
1772883305949908700,8.57190869140625,0.23869559168815613,0.06322455406188965,0.20112738013267517
1772883305966512400,8.588512451171875,0.24327708780765533,-0.04642575979232788,0.1540907621383667
1772883305983123000,8.605123046875,0.20555615425109863,-0.17302757501602173,-0.024129176512360573
1772883305999725300,8.621725341796875,0.1647808998823166,-0.22220222651958466,-0.2226603776216507
1772883306016329200,8.6383291015625,0.14019356667995453,-0.15546520054340363,-0.28955012559890747
1772883306032931600,8.654931640625,0.1459967941045761,-0.050854530185461044,-0.19562959671020508
1772883306049544700,8.671544677734374,0.19333885610103607,0.14019356667995453,-0.0010690141934901476
1772883306066143500,8.6881435546875,0.2678644061088562,0.3605632185935974,0.19593502581119537
1772883306082752500,8.70475244140625,0.34513887763023376,0.4437935948371887,0.33887749910354614
1772883306099357700,8.721357666015624,0.4389066696166992,0.3335324227809906,0.370947927236557
1772883306115959000,8.737958984375,0.4786129295825958,0.156686931848526,0.3361285924911499
1772883306132566500,8.75456640625,0.4944954216480255,0.08781187981367111,0.33108896017074585
1772883306149140000,8.771139892578125,0.5396994352340698,0.12476922571659088,0.35094207525253296
1772883306165772300,8.787772216796874,0.5677992701530457,0.12095131725072861,0.39095374941825867
1772883306182368800,8.80436865234375,0.5647448897361755,0.10033461451530457,0.3674354553222656
1772883306198973000,8.820972900390625,0.5334380865097046,0.009621127508580685,0.2373211532831192
1772883306215577300,8.837577392578124,0.47219884395599365,-0.1540907621383667,0.0507018156349659
1772883306232183300,8.854183349609375,0.4219551682472229,-0.2724458873271942,-0.10995574295520782
1772883306248770800,8.870770751953126,0.4008803069591522,-0.22647829353809357,-0.19288070499897003
1772883306265393700,8.8873935546875,0.36361753940582275,-0.039248090237379074,-0.22113321721553802
1772883306281997800,8.903997802734375,0.342237263917923,0.2834414839744568,-0.18417587876319885
1772883306298603800,8.920603759765624,0.3110831379890442,0.4486805200576782,-0.17852537333965302
1772883306315209000,8.937208984375,0.27488934993743896,0.30604347586631775,-0.19837848842144012
1772883306331831000,8.9538310546875,0.22052235901355743,-0.04749477282166481,-0.15454891324043274
1772883306348431400,8.970431396484376,0.18845193088054657,-0.21670444309711456,-0.0731511116027832
1772883306365034200,8.9870341796875,0.1999056488275528,-0.14065171778202057,-0.01466076634824276
1772883306381646800,9.003646728515625,0.2226603776216507,0.050854530185461044,-0.010690141469240189
1772883306398248400,9.02024853515625,0.20173825323581696,0.15561792254447937,-0.03436116874217987
1772883306414852900,9.036852783203125,0.13836097717285156,0.1817324161529541,-0.04046982154250145
1772883306431458300,9.053458251953124,0.06948592513799667,0.14584407210350037,-0.011453723534941673
1772883306448063200,9.070063232421875,0.056352317333221436,0.12919799983501434,0.021532999351620674
1772883306464664300,9.086664306640625,0.05207626149058342,0.09498954564332962,0.0884227454662323
1772883306481277200,9.103277099609375,0.021991148591041565,0.01572977937757969,0.19196440279483795
1772883306497879300,9.11987939453125,-0.048105638474226,-0.21807889640331268,0.27870726585388184
1772883306514484000,9.13648388671875,-0.13973543047904968,-0.4363104999065399,0.3271183371543884
1772883306531089400,9.15308935546875,-0.2151772826910019,-0.49266281723976135,0.27641651034355164
1772883306547693000,9.169693115234375,-0.26251932978630066,-0.45326200127601624,0.17959438264369965
1772883306564295200,9.186295166015626,-0.294895201921463,-0.31551191210746765,0.09666942805051804
1772883306580908300,9.202908203125,-0.33429601788520813,-0.1719585657119751,0.06444628536701202
1772883306597509600,9.219509521484374,-0.4034765064716339,-0.030085112899541855,0.06475171446800232
1772883306614113500,9.236113525390625,-0.44180828332901,0.028099801391363144,0.11239920556545258
1772883306630719700,9.2527197265625,-0.4306600093841553,-0.01542434748262167,0.16340644657611847
1772883306647325000,9.269324951171875,-0.4356996417045593,-0.20570887625217438,0.1443169116973877
1772883306663926000,9.285926025390625,-0.47051894664764404,-0.2223549485206604,0.08506298810243607
1772883306680521000,9.30252099609375,-0.5148066878318787,-0.10399980843067169,-0.03237585723400116
1772883306697126700,9.319126708984374,-0.5687155723571777,-0.057879481464624405,-0.2638937830924988
1772883306713731600,9.335731689453125,-0.6362161636352539,-0.04489859566092491,-0.508087158203125
1772883306730336500,9.35233642578125,-0.6464481353759766,0.08002334833145142,-0.6188064813613892
1772883306746941000,9.36894091796875,-0.588874101638794,0.275347501039505,-0.5424483418464661
1772883306763543600,9.38554345703125,-0.4564690589904785,0.39477166533470154,-0.3194825351238251
1772883306780155400,9.4021552734375,-0.3121521472930908,0.4712825417518616,-0.032681290060281754
1772883306796757200,9.41875732421875,-0.22846360504627228,0.40775254368782043,0.2591595947742462
1772883306813361400,9.435361328125,-0.15271630883216858,0.23716843128204346,0.517861008644104
1772883306829984500,9.451984619140624,-0.03191770985722542,0.12522737681865692,0.6898195743560791
1772883306846586000,9.468586181640624,0.0708603709936142,0.08674286305904388,0.6815729141235352
1772883306863191300,9.48519140625,0.10491610318422318,0.22342395782470703,0.594524621963501
1772883306879795700,9.501795654296876,0.06490442901849747,0.5189300179481506,0.7383833527565002
1772883306896401400,9.5184013671875,0.05650503560900688,0.192422553896904,0.6495024561882019
1772883306913006800,9.5350068359375,0.06230825558304787,-0.15424346923828125,0.4528038501739502
1772883306929613000,9.551613037109375,0.055283304303884506,-0.290313720703125,0.204487144947052
1772883306946216000,9.5682158203125,-0.02015855349600315,-0.1915062516927719,0.004734205547720194
1772883306962818800,9.58481884765625,-0.053297992795705795,0.018936822190880775,-0.0354301854968071
