time,seconds_elapsed,z,y,x
1772883297510367700,0.13236767578125,0.13286319375038147,-0.15577064454555511,0.21120665967464447
1772883297526954800,0.148954833984375,0.09941831976175308,-0.1007927656173706,0.09712757170200348
1772883297543559400,0.165559326171875,0.05619960278272629,-0.06185010448098183,-0.015118914656341076
1772883297560161800,0.182161865234375,0.027183502912521362,-0.0780380368232727,-0.11820242553949356
1772883297576767500,0.198767578125,0.055894169956445694,-0.08338310569524765,-0.16539175808429718
1772883297593361200,0.215361083984375,0.11056660860776901,-0.1408044397830963,-0.16554448008537292
1772883297609980700,0.231980712890625,0.19975294172763824,-0.13057245314121246,-0.12232576310634613
1772883297626600000,0.248599853515625,0.24694228172302246,-0.13377949595451355,-0.07284568250179291
1772883297643196400,0.265196533203125,0.2968805134296417,-0.10247264802455902,-0.059864792972803116
1772883297659803000,0.281802978515625,0.33337971568107605,-0.06276640295982361,-0.04001167416572571
1772883297676414000,0.2984140625,0.328340083360672,-0.07956519722938538,-0.06994406878948212
1772883297693019100,0.31501904296875,0.31810808181762695,0.018478672951459885,-0.0910189226269722
1772883297709619700,0.33161962890625,0.289244681596756,0.06612616032361984,-0.08216137439012527
1772883297726226700,0.348226806640625,0.2626720666885376,0.009773843921720982,-0.08827003091573715
1772883297742833700,0.364833740234375,0.22800545394420624,-0.016493361443281174,-0.09193521738052368
1772883297759421400,0.38142138671875,0.19746218621730804,-0.015577063895761967,-0.08002334833145142
1772883297776034600,0.39803466796875,0.1944078654050827,0.02229658141732216,-0.06551529467105865
1772883297792632000,0.414632080078125,0.1999056488275528,0.036193765699863434,-0.09575312584638596
1772883297809250000,0.43125,0.1898263692855835,0.014049900695681572,-0.10399980843067169
1772883297825836300,0.447836181640625,0.17348572611808777,-0.055741455405950546,-0.059864792972803116
1772883297842465500,0.464465576171875,0.1495092660188675,-0.14019356667995453,-0.015882495790719986
1772883297859051300,0.48105126953125,0.10567969083786011,-0.14294247329235077,-0.02779436856508255
1772883297875670500,0.49767041015625,0.07773260027170181,-0.04963280260562897,-0.07742717117071152
1772883297892298800,0.514298828125,0.04382958263158798,0.04581489413976669,-0.06200282275676727
1772883297908872200,0.5308720703125,-0.004734205547720194,0.04398229718208313,0.0025961773935705423
1772883297925486300,0.547486328125,-0.05497787147760391,-0.04001167416572571,0.09300423413515091
1772883297942095600,0.564095703125,-0.09896016865968704,-0.1466076523065567,0.17241671681404114
1772883297958682000,0.58068212890625,-0.14569136500358582,-0.21853704750537872,0.1849394589662552
1772883297975283000,0.597282958984375,-0.20402899384498596,-0.28817567229270935,0.12660181522369385
1772883297991885300,0.61388525390625,-0.28038713335990906,-0.342237263917923,0.06765332818031311
1772883298008503000,0.6305029296875,-0.33597588539123535,-0.2562579810619354,0.08567385375499725
1772883298025103600,0.647103515625,-0.3520110845565796,-0.1592831164598465,0.15164729952812195
1772883298041713000,0.663712890625,-0.32788193225860596,-0.08536841720342636,0.2454151064157486
1772883298058316000,0.68031591796875,-0.27779096364974976,-0.035582900047302246,0.32528573274612427
1772883298074917000,0.696917236328125,-0.30405816435813904,-0.15775595605373383,0.26740625500679016
1772883298091515100,0.71351513671875,-0.36422839760780334,-0.24755313992500305,0.1469130963087082
1772883298108141800,0.730141845703125,-0.3929390609264374,-0.25014930963516235,0.04001167416572571
1772883298124732700,0.746732666015625,-0.4437935948371887,-0.2574796974658966,-0.13530665636062622
1772883298141359600,0.763359619140625,-0.5248859524726868,-0.182648703455925,-0.3318525552749634
1772883298157962800,0.779962646484375,-0.6346889734268188,-0.07712173461914062,-0.5401576161384583
1772883298174574000,0.796573974609375,-0.7144069075584412,0.078343465924263,-0.7252497673034668
1772883298191164200,0.8131640625,-0.7214318513870239,0.2825251817703247,-0.8315402865409851
1772883298207777800,0.82977783203125,-0.6924157738685608,0.42180246114730835,-0.8481863737106323
1772883298224380700,0.846380615234375,-0.6258314251899719,0.5659666657447815,-0.7513642311096191
1772883298240989000,0.862989013671875,-0.4743368625640869,0.6247624158859253,-0.5797111392021179
1772883298257591300,0.87959130859375,-0.28237244486808777,0.5577199459075928,-0.35475999116897583
1772883298274223900,0.896223876953125,-0.08765916526317596,0.30863967537879944,-0.08827003091573715
1772883298290794800,0.912794677734375,0.076052725315094,-0.023060163483023643,0.1814269721508026
1772883298307406300,0.92940625,0.14523321390151978,-0.3367394804954529,0.375071257352829
1772883298324004900,0.9460048828125,0.11560624837875366,-0.543059229850769,0.4129449129104614
1772883298340617200,0.9626171875,0.029168816283345222,-0.6136141419410706,0.24190263450145721
1772883298357235700,0.979235595703125,-0.06459899991750717,-0.4509712755680084,-0.031154127791523933
1772883298373822200,0.995822265625,-0.1411098688840866,-0.18539759516716003,-0.26053401827812195
1772883298390459000,1.012458984375,-0.21105393767356873,0.08399397134780884,-0.3608686327934265
1772883298407051000,1.029051025390625,-0.2796235680580139,0.26343563199043274,-0.3094032406806946
1772883298423639300,1.045639404296875,-0.3323107063770294,0.25961771607398987,-0.16523905098438263
1772883298440243700,1.06224365234375,-0.3582724630832672,0.12263119965791702,-0.02932153269648552
1772883298456847000,1.07884716796875,-0.3407101035118103,-0.014202617108821869,0.024892758578062057
1772883298473462800,1.095462890625,-0.30482175946235657,-0.12171489745378494,-0.039248090237379074
1772883298490069800,1.11206982421875,-0.24953845143318176,-0.13026700913906097,-0.16737708449363708
1772883298506626000,1.1286259765625,-0.1895209401845932,-0.08597928285598755,-0.2785545587539673
1772883298523256600,1.145256591796875,-0.12721268832683563,-0.0659734457731247,-0.29565876722335815
1772883298539862300,1.1618623046875,-0.07590000331401825,-0.047189339995384216,-0.22632557153701782
1772883298556467200,1.17846728515625,-0.029626963660120964,-0.014508049935102463,-0.12079860270023346
1772883298573073200,1.1950732421875,0.020922135561704636,-0.003359758760780096,-0.04153883829712868
1772883298589676500,1.211676513671875,0.08185594528913498,-0.040622539818286896,-0.009162978269159794
1772883298606282200,1.2282822265625,0.14706580340862274,-0.02428189292550087,0.04596760869026184
1772883298622905000,1.244905029296875,0.21792617440223694,0.01878410577774048,0.08231408894062042
1772883298639503600,1.261503662109375,0.27611109614372253,0.04856378585100174,0.055283304303884506
1772883298656098300,1.278098388671875,0.3130684494972229,0.04902193695306778,0.024129176512360573
1772883298672716300,1.29471630859375,0.34804046154022217,0.06200282275676727,0.025656340643763542
1772883298689318100,1.311318115234375,0.37797287106513977,0.037110064178705215,0.04703662544488907
1772883298705906400,1.327906494140625,0.4069889783859253,-0.03634648025035858,0.06887505948543549
1772883298722530300,1.3445302734375,0.43936482071876526,-0.046273041516542435,0.13866640627384186
1772883298739138000,1.361137939453125,0.44165557622909546,-0.021380282938480377,0.19303341209888458
1772883298755712500,1.37771240234375,0.427452951669693,-0.0039706239476799965,0.14508049190044403
1772883298772345300,1.394345458984375,0.379652738571167,-0.023365596309304237,0.01664607785642147
1772883298788946400,1.410946533203125,0.29886582493782043,-0.08475755155086517,-0.14477506279945374
1772883298805561000,1.42756103515625,0.22586742043495178,-0.09086620807647705,-0.24297164380550385
1772883298822164200,1.444164306640625,0.18936823308467865,-0.003054326167330146,-0.24007004499435425
1772883298838761000,1.460760986328125,0.18310685455799103,0.09208793938159943,-0.16661348938941956
1772883298855358000,1.47735791015625,0.18845193088054657,0.1371392458677292,-0.11102475970983505
1772883298871976400,1.4939765625,0.19715675711631775,0.14614951610565186,-0.08857546001672745
1772883298888580900,1.510580810546875,0.2255619913339615,0.1336267739534378,-0.014966198243200779
1772883298905187600,1.5271875,0.2819143235683441,0.11484266817569733,0.19043724238872528
1772883298921787600,1.54378759765625,0.3778201639652252,0.11453723162412643,0.4795292317867279
1772883298938402600,1.560402587890625,0.44776421785354614,0.14278975129127502,0.6884451508522034
1772883298954979000,1.57697900390625,0.47311514616012573,0.04734205827116966,0.7047857642173767
1772883298971592000,1.593592041015625,0.45265114307403564,-0.06734789162874222,0.6299547553062439
1772883298988209700,1.610209716796875,0.38026362657546997,-0.17547103762626648,0.470671683549881
1772883299004804900,1.626804931640625,0.30925053358078003,-0.2629774808883667,0.2825251817703247
1772883299021431600,1.643431640625,0.2883284091949463,-0.19028452038764954,0.20112738013267517
1772883299038017500,1.660017578125,0.2877175211906433,-0.04535674303770065,0.18524488806724548
1772883299054616800,1.676616943359375,0.25854870676994324,0.10445795953273773,0.1563815027475357
1772883299071226400,1.693226318359375,0.19379699230194092,0.1690569519996643,0.05726861581206322
1772883299087829200,1.709829345703125,0.1459967941045761,0.10949759185314178,-0.02977968007326126
1772883299104421400,1.72642138671875,0.11224649101495743,-0.0025961773935705423,-0.059864792972803116
1772883299121047800,1.7430478515625,0.10415252298116684,-0.11682797968387604,-0.061391957104206085
1772883299137659000,1.759658935546875,0.12263119965791702,-0.11026117950677872,-0.01466076634824276
1772883299154248000,1.776248046875,0.15317445993423462,-0.023365596309304237,0.024892758578062057
1772883299170870800,1.792870849609375,0.17012597620487213,0.05696318298578262,0.04993823543190956
1772883299187470600,1.809470703125,0.17699819803237915,0.06887505948543549,0.10537425428628922
1772883299204081700,1.82608154296875,0.19379699230194092,-0.038026362657547,0.18539759516716003
1772883299220687400,1.842687255859375,0.1999056488275528,-0.11407908797264099,0.31184670329093933
1772883299237294800,1.859294921875,0.16401731967926025,-0.11530081182718277,0.451123982667923
1772883299253856500,1.8758564453125,0.11789698898792267,-0.03084869496524334,0.5322163701057434
1772883299270497500,1.89249755859375,0.06918048858642578,0.08781187981367111,0.5432119369506836
1772883299287098600,1.9090986328125,0.038026362657547,0.1872301995754242,0.5372560024261475
1772883299303712300,1.925712158203125,-0.0003054326225537807,0.18585574626922607,0.5320636034011841
1772883299320313300,1.942313232421875,-0.04688390716910362,0.12690725922584534,0.517861008644104
1772883299345224200,1.96722412109375,-0.13377949595451355,0.021380282938480377,0.46043968200683594
1772883299361821000,1.983821044921875,-0.18020524084568024,-0.05849034711718559,0.3741549551486969
1772883299378473000,2.000472900390625,-0.19532416760921478,-0.06673702597618103,0.25641068816185
1772883299395026000,2.01702587890625,-0.21930062770843506,-0.08307767659425735,0.11728613078594208
1772883299411641300,2.033641357421875,-0.27091872692108154,-0.08521570265293121,0.018936822190880775
1772883299428233200,2.050233154296875,-0.3407101035118103,-0.08124507963657379,-0.014813481830060482
1772883299444852000,2.06685205078125,-0.3914119005203247,-0.12980885803699493,-0.019853120669722557
1772883299461464800,2.08346484375,-0.4190535545349121,-0.18127426505088806,-0.06872233748435974
1772883299478063000,2.10006298828125,-0.427452951669693,-0.1537853181362152,-0.12232576310634613
1772883299494651400,2.1166513671875,-0.4086688458919525,-0.09422596544027328,-0.12217304855585098
1772883299511265000,2.13326513671875,-0.347276896238327,-0.041691552847623825,-0.0832303911447525
1772883299527860000,2.14985986328125,-0.28466320037841797,0.011759156361222267,-0.05054909735918045
1772883299544469500,2.166469482421875,-0.27809640765190125,-0.023060163483023643,-0.12996158003807068
1772883299561076700,2.18307666015625,-0.2967278063297272,-0.13072516024112701,-0.3150537610054016
1772883299577680100,2.19968017578125,-0.33475416898727417,-0.20234911143779755,-0.4729624092578888
1772883299594284800,2.216284912109375,-0.35353827476501465,-0.1443169116973877,-0.5322163701057434
1772883299610905600,2.232905517578125,-0.32162055373191833,0.024587325751781464,-0.5012149214744568
1772883299627508200,2.24950830078125,-0.25366178154945374,0.17058411240577698,-0.40485092997550964
1772883299644114400,2.266114501953125,-0.17348572611808777,0.24190263450145721,-0.2551889419555664
1772883299660715300,2.28271533203125,-0.10705413669347763,0.19532416760921478,-0.09392052888870239
1772883299677324300,2.29932421875,-0.05253441259264946,0.04596760869026184,0.022602014243602753
1772883299693928000,2.315927978515625,-0.001679879380390048,-0.11820242553949356,0.12492194026708603
1772883299710532400,2.332532470703125,0.0455094613134861,-0.23716843128204346,0.2444988191127777
1772883299727123200,2.349123291015625,0.06444628536701202,-0.2499966025352478,0.3556762933731079
1772883299743743200,2.3657431640625,0.03344487398862839,-0.16233743727207184,0.40744712948799133
1772883299760348400,2.382348388671875,-0.03130684420466423,-0.076052725315094,0.36682456731796265
1772883299776954400,2.398954345703125,-0.09498954564332962,-0.07452555745840073,0.22937989234924316
1772883299793558000,2.41555810546875,-0.16859880089759827,-0.11423180252313614,0.02672535367310047
1772883299810163200,2.4321630859375,-0.23090706765651703,-0.1238529309630394,-0.16630806028842926
1772883299826753800,2.44875390625,-0.2525927722454071,-0.04398229718208313,-0.2301434874534607
1772883299843378200,2.465378173828125,-0.24068090319633484,0.07147123664617538,-0.19746218621730804
1772883299859979300,2.481979248046875,-0.2018909603357315,0.19257527589797974,-0.12782354652881622
1772883299876584000,2.498583984375,-0.15332718193531036,0.27030786871910095,-0.07192938029766083
1772883299893189000,2.515189208984375,-0.10277807712554932,0.2272418737411499,-0.06123924255371094
1772883299909793000,2.53179296875,-0.04306599870324135,0.14553864300251007,-0.05375614017248154
1772883299926387000,2.548386962890625,0.021991148591041565,0.032070424407720566,-0.076052725315094
1772883299943006000,2.565005859375,0.09193521738052368,-0.039095375686883926,-0.10659598559141159
1772883299959609600,2.581609619140625,0.15012013912200928,-0.01970040425658226,-0.1082758679986
1772883299976216600,2.598216552734375,0.17959438264369965,0.04092797264456749,-0.07360926270484924
1772883299992804000,2.61480419921875,0.19074267148971558,0.07009678333997726,-0.04352414980530739
1772883300009429000,2.631428955078125,0.19654589891433716,0.04703662544488907,-0.03985895588994026
1772883300026017500,2.648017578125,0.20494529604911804,-0.0019853119738399982,-0.016798794269561768
1772883300042623200,2.664623291015625,0.2102903574705124,-0.01771509274840355,0.029626963660120964
1772883300059239000,2.681239013671875,0.21578814089298248,0.016493361443281174,0.030695978552103043
1772883300075832000,2.69783203125,0.2246456891298294,0.10613783448934555,-0.019547687843441963
1772883300092458500,2.71445849609375,0.23915374279022217,0.19776763021945953,-0.05360342562198639
1772883300109055200,2.73105517578125,0.25793784856796265,0.19456058740615845,-0.05268712714314461
1772883300125645600,2.7476455078125,0.26542094349861145,0.10491610318422318,-0.03527746722102165
1772883300142261500,2.764261474609375,0.2715296149253845,-0.0019853119738399982,-0.017409659922122955
1772883300158873600,2.78087353515625,0.2817615866661072,-0.06200282275676727,-0.009010262787342072
1772883300175477500,2.7974775390625,0.29397889971733093,-0.029932396486401558,-0.017409659922122955
1772883300192083500,2.81408349609375,0.2744311988353729,0.01572977937757969,-0.024892758578062057
1772883300208685000,2.83068505859375,0.2480112910270691,0.058795779943466187,-0.01618792861700058
1772883300225271800,2.847271728515625,0.23884831368923187,0.12446379661560059,0.031612277030944824
1772883300241895000,2.86389501953125,0.26832255721092224,0.20005837082862854,0.09269879758358002
1772883300258502100,2.880502197265625,0.2938261926174164,0.2073887437582016,0.1333213448524475
1772883300275106300,2.897106201171875,0.2929098904132843,0.2292271852493286,0.09269879758358002
1772883300291695000,2.913695068359375,0.26221391558647156,0.19333885610103607,-0.044135015457868576
1772883300308306000,2.930305908203125,0.17867808043956757,0.08811730891466141,-0.2808452844619751
1772883300324909000,2.946908935546875,0.06475171446800232,-0.050854530185461044,-0.5422956347465515
1772883300341515000,2.963514892578125,-0.03298672288656235,-0.14065171778202057,-0.6543893814086914
1772883300358122800,2.980122802734375,-0.09789115190505981,-0.10965031385421753,-0.6148358583450317
1772883300374725400,2.996725341796875,-0.10705413669347763,0.04703662544488907,-0.46043968200683594
1772883300391345400,3.013345458984375,-0.027947084978222847,0.290313720703125,-0.20601430535316467
1772883300407936000,3.02993603515625,0.09957103431224823,0.3674354553222656,0.058184914290905
1772883300424553700,3.0465537109375,0.24068090319633484,0.3436116874217987,0.33826664090156555
1772883300441159200,3.0631591796875,0.32039880752563477,0.25503623485565186,0.5418374538421631
1772883300457763600,3.079763671875,0.33276882767677307,0.04917465150356293,0.5830708742141724
1772883300474369000,3.096369140625,0.33567044138908386,-0.1420261710882187,0.47678032517433167
1772883300490961000,3.1129609375,0.3269656300544739,-0.2243402600288391,0.3098613917827606
1772883300507564300,3.129564208984375,0.27580565214157104,-0.14446963369846344,0.13087788224220276
1772883300524170800,3.146170654296875,0.19792033731937408,-0.006108652334660292,-0.05345070734620094
1772883300540775000,3.16277490234375,0.13820825517177582,0.0754418596625328,-0.2021963894367218
1772883300557381400,3.17938134765625,0.12003502249717712,0.060933809727430344,-0.2883284091949463
1772883300573986600,3.195986572265625,0.13897185027599335,0.02428189292550087,-0.29077184200286865
1772883300590608100,3.212608154296875,0.17592918872833252,0.01970040425658226,-0.22907446324825287
1772883300607210200,3.229210205078125,0.2252565622329712,0.06673702597618103,-0.1537853181362152
1772883300623799000,3.245799072265625,0.2857322096824646,0.14813482761383057,-0.0913243517279625
1772883300640424000,3.262423828125,0.32528573274612427,0.1635591685771942,-0.05207626149058342
1772883300657022700,3.279022705078125,0.3396410644054413,0.10323622822761536,-0.043676864355802536
1772883300673622800,3.295622802734375,0.34025195240974426,0.010231993161141872,-0.060933809727430344
1772883300690235400,3.3122353515625,0.3237585723400116,-0.06108652427792549,-0.08155050873756409
1772883300706840600,3.328840576171875,0.299476683139801,-0.10720685124397278,-0.07727445662021637
1772883300723429400,3.345429443359375,0.2701551616191864,-0.1212567538022995,-0.03695734590291977
1772883300740032000,3.362031982421875,0.2275473028421402,-0.07391469180583954,-0.005803219974040985
1772883300756639000,3.378638916015625,0.1609629988670349,0.004123340360820293,-0.004581489134579897
1772883300773247200,3.395247314453125,0.0679587572813034,0.02229658141732216,-0.004886921960860491
1772883300789870300,3.411870361328125,-0.015271631069481373,-0.004428773187100887,0.020922135561704636
1772883300806471400,3.428471435546875,-0.0708603709936142,-0.04214970022439957,0.08689557760953903
1772883300823076600,3.44507666015625,-0.11209376901388168,-0.10965031385421753,0.18936823308467865
1772883300839678700,3.4616787109375,-0.16279558837413788,-0.15134187042713165,0.2551889419555664
1772883300856286000,3.478285888671875,-0.24816401302814484,-0.1950187236070633,0.20662516355514526
1772883300872896800,3.494896728515625,-0.34437528252601624,-0.1408044397830963,0.11010845750570297
1772883300889496800,3.511496826171875,-0.4375322461128235,-0.0780380368232727,0.011453723534941673
1772883300906102000,3.52810205078125,-0.5079344511032104,-0.06658431142568588,-0.04337143152952194
1772883300922677200,3.54467724609375,-0.5487096905708313,-0.06444628536701202,-0.038026362657547
1772883300939334400,3.56133447265625,-0.5523748993873596,-0.025045474991202354,0.009773843921720982
1772883300955917800,3.577917724609375,-0.5199990272521973,0.00855211354792118,0.08903361111879349
1772883300972506000,3.594506103515625,-0.48380526900291443,-0.001832595793530345,0.1589776873588562
1772883300989113900,3.61111376953125,-0.47051894664764404,-0.048258353024721146,0.1898263692855835
1772883301005719600,3.627719482421875,-0.4717406928539276,-0.042760565876960754,0.16508632898330688
1772883301022324200,3.64432421875,-0.5038111209869385,-0.1235474944114685,0.02535090781748295
1772883301038928600,3.6609287109375,-0.5673410892486572,-0.3150537610054016,-0.24190263450145721
1772883301055521000,3.67752099609375,-0.627358615398407,-0.38117989897727966,-0.4990769028663635
1772883301072163000,3.6941630859375,-0.636521577835083,-0.18677204847335815,-0.5940664410591125
1772883301088759000,3.710759033203125,-0.5810855627059937,0.12247848510742188,-0.4899139404296875
1772883301105364000,3.727364013671875,-0.471129834651947,0.34895676374435425,-0.18448130786418915
1772883301121961500,3.74396142578125,-0.34574973583221436,0.35659259557724,0.18738290667533875
1772883301138573600,3.760573486328125,-0.24190263450145721,0.14340060949325562,0.45463645458221436
1772883301155163000,3.777162841796875,-0.17211128771305084,-0.1238529309630394,0.599564254283905
1772883301171784400,3.793784423828125,-0.1466076523065567,-0.2741257846355438,0.6505714654922485
1772883301188389000,3.81038916015625,-0.18066339194774628,-0.34162637591362,0.5832235813140869
1772883301204977200,3.82697705078125,-0.2538145184516907,-0.3376557528972626,0.44104471802711487
1772883301221585700,3.843585693359375,-0.323147714138031,-0.28496864438056946,0.29336804151535034
1772883301238204400,3.860204345703125,-0.3660610020160675,-0.1999056488275528,0.16004669666290283
1772883301254793200,3.876793212890625,-0.38377609848976135,-0.07406741380691528,0.06673702597618103
1772883301271415300,3.893415283203125,-0.3933972120285034,0.06719517707824707,0.02229658141732216
1772883301288019500,3.91001953125,-0.38667771220207214,0.16142113506793976,0.012217304669320583
1772883301304625200,3.926625244140625,-0.37171149253845215,0.20463985204696655,0.029626963660120964
1772883301321227800,3.943227783203125,-0.3168863356113434,0.14248432219028473,0.05513058975338936
1772883301337835000,3.9598349609375,-0.2588541507720947,0.051312681287527084,0.08384125679731369
1772883301354423600,3.976423583984375,-0.2203696370124817,-0.05910121276974678,0.05665775015950203
1772883301371046000,3.9930458984375,-0.18967366218566895,-0.12140946835279465,-0.04092797264456749
1772883301387650300,4.009650390625,-0.1693623960018158,-0.11545353382825851,-0.15974126756191254
1772883301404256300,4.02625634765625,-0.14156801998615265,-0.09575312584638596,-0.2174680233001709
1772883301420844000,4.042843994140625,-0.08994990587234497,-0.02321287989616394,-0.16691893339157104
1772883301437465900,4.0594658203125,-0.03145955875515938,0.04398229718208313,-0.09025534242391586
1772883301454059000,4.07605908203125,0.038179077208042145,0.08643743395805359,-0.02977968007326126
1772883301470659300,4.092659423828125,0.09086620807647705,0.0754418596625328,-0.007941247895359993
1772883301487267300,4.109267333984375,0.10506882518529892,0.031612277030944824,-0.012828170321881771
1772883301503873000,4.125873046875,0.09575312584638596,0.011759156361222267,0.0027488935738801956
1772883301520477700,4.142477783203125,0.09254608303308487,-0.012675453908741474,0.019394971430301666
1772883301537083000,4.159082763671875,0.10552696883678436,-0.008246680721640587,0.019089538604021072
1772883301553675000,4.175675048828125,0.12751811742782593,0.048258353024721146,0.016493361443281174
1772883301570310400,4.192310302734375,0.15103642642498016,0.11071932315826416,0.004428773187100887
1772883301586912000,4.208912109375,0.16203200817108154,0.08979719132184982,-0.009926560334861279
1772883301603494700,4.22549462890625,0.16814066469669342,0.06383541971445084,0.02977968007326126
1772883301620134400,4.242134521484375,0.19364428520202637,0.10537425428628922,0.07590000331401825
1772883301636727300,4.258727294921875,0.24174992740154266,0.20402899384498596,0.11972958594560623
1772883301653316600,4.275316650390625,0.2756529450416565,0.25503623485565186,0.1319468915462494
1772883301669938000,4.29193798828125,0.30573806166648865,0.24327708780765533,0.0913243517279625
1772883301686542600,4.30854248046875,0.3066543638706207,0.24892759323120117,0.07070764899253845
1772883301703147800,4.325147705078125,0.2802344262599945,0.17302757501602173,0.02733621932566166
1772883301719736300,4.341736328125,0.23426681756973267,0.00427605677396059,-0.096211276948452
1772883301736358100,4.358358154296875,0.1719585657119751,-0.1488984078168869,-0.252287358045578
1772883301752969500,4.374969482421875,0.14569136500358582,-0.2073887437582016,-0.32391130924224854
1772883301769568800,4.39156884765625,0.12308934330940247,-0.1495092660188675,-0.15302173793315887
1772883301786173400,4.40817333984375,0.10751228034496307,-0.057879481464624405,0.032681290060281754
1772883301802779000,4.42477880859375,0.08918632566928864,-0.12140946835279465,-0.06429356336593628
1772883301819377000,4.441376953125,0.04948008432984352,-0.22418753802776337,-0.30344730615615845
1772883301835979300,4.457979248046875,0.07681630551815033,-0.17959438264369965,-0.3908010423183441
1772883301852582700,4.474582763671875,0.15073099732398987,0.020311269909143448,-0.2422080636024475
1772883301869199600,4.49119970703125,0.2541199326515198,0.0913243517279625,-0.03237585723400116
1772883301885787600,4.50778759765625,0.3217732608318329,0.03833179548382759,0.11804971098899841
1772883301902409000,4.524408935546875,0.3344487249851227,-0.07360926270484924,0.1472185254096985
1772883301918997800,4.540997802734375,0.31551191210746765,-0.13973543047904968,0.10674870014190674
1772883301935619300,4.557619384765625,0.2750420868396759,-0.1368338167667389,0.03756821155548096
1772883301952196400,4.5741962890625,0.2402227520942688,-0.09025534242391586,-0.05619960278272629
1772883301968816400,4.59081640625,0.21441370248794556,0.00015271631127689034,-0.144622340798378
1772883301985421000,4.607421142578125,0.21380282938480377,0.05146539583802223,-0.16508632898330688
1772883302002018800,4.624018798828125,0.24694228172302246,0.1108720451593399,-0.07910704612731934
1772883302018631400,4.64063134765625,0.2845104932785034,0.13820825517177582,0.021074850112199783
1772883302035233300,4.6572333984375,0.3068070709705353,0.13729196786880493,0.0754418596625328
1772883302051831000,4.6738310546875,0.3124575614929199,0.1466076523065567,0.10033461451530457
1772883302068463900,4.6904638671875,0.2955060601234436,0.13744467496871948,0.08216137439012527
1772883302085065700,4.707065673828125,0.2733621895313263,0.10216721147298813,0.039248090237379074
1772883302101670700,4.723670654296875,0.2528982162475586,0.039248090237379074,-0.0354301854968071
1772883302118257400,4.74025732421875,0.22968533635139465,0.0065668015740811825,-0.08155050873756409
1772883302134882600,4.756882568359375,0.20952677726745605,0.00931569468230009,-0.06948592513799667
1772883302151505200,4.773505126953125,0.18707747757434845,0.031612277030944824,-0.028557950630784035
1772883302168091600,4.790091552734375,0.16203200817108154,0.07360926270484924,0.00366519158706069
1772883302184682000,4.806681884765625,0.1362229436635971,0.058337632566690445,0.010995574295520782
1772883302201301500,4.823301513671875,0.11407908797264099,0.017409659922122955,0.01466076634824276
1772883302217906700,4.83990673828125,0.0988074541091919,-0.009162978269159794,0.04795292019844055
1772883302234511600,4.85651171875,0.08338310569524765,-0.06352998316287994,0.10323622822761536
1772883302251100200,4.87310009765625,0.058337632566690445,-0.0936150997877121,0.16722436249256134
1772883302267704800,4.889704833984375,0.007941247895359993,-0.07483099400997162,0.20906862616539001
1772883302284304100,4.90630419921875,-0.04214970022439957,-0.07223481684923172,0.16722436249256134
1772883302300918500,4.92291845703125,-0.11071932315826416,-0.14782938361167908,0.1082758679986
1772883302317510700,4.9395107421875,-0.16661348938941956,-0.21013765037059784,0.07299839705228806
1772883302334136600,4.956136474609375,-0.20815233886241913,-0.1996002197265625,0.059406645596027374
1772883302350729700,4.972729736328125,-0.25305092334747314,-0.14385876059532166,0.038026362657547
1772883302367339300,4.98933935546875,-0.29825496673583984,-0.034666601568460464,0.04734205827116966
1772883302383961300,5.00596142578125,-0.3159700334072113,0.09422596544027328,0.1342376321554184
1772883302400546600,5.022546630859375,-0.3228422701358795,0.0659734457731247,0.20830504596233368
1772883302417151700,5.03915185546875,-0.3217732608318329,-0.04886921867728233,0.20097467303276062
1772883302433741800,5.055741943359375,-0.3352122902870178,-0.15302173793315887,0.1033889427781105
1772883302450378000,5.0723779296875,-0.35705074667930603,-0.20570887625217438,-0.07651086896657944
1772883302466984200,5.088984130859375,-0.3874412775039673,-0.18860463798046112,-0.24205535650253296
1772883302483588600,5.105588623046875,-0.4534147381782532,-0.16859880089759827,-0.38667771220207214
1772883302500193500,5.122193603515625,-0.5320636034011841,-0.058795779943466187,-0.4867068827152252
1772883302516782600,5.138782470703125,-0.5742133259773254,0.1059851199388504,-0.5244278311729431
1772883302533387800,5.1553876953125,-0.5371032953262329,0.2483167201280594,-0.44806966185569763
1772883302549992200,5.1719921875,-0.42989641427993774,0.22296582162380219,-0.24862214922904968
1772883302566615000,5.188614990234375,-0.3165809214115143,0.09239336848258972,0.020922135561704636
1772883302583219200,5.20521923828125,-0.24037547409534454,-0.06841690838336945,0.2370157092809677
1772883302599824400,5.221824462890625,-0.20983220636844635,-0.19517144560813904,0.40714168548583984
1772883302616421600,5.238421630859375,-0.1941024363040924,-0.21639901399612427,0.46929723024368286
1772883302633034800,5.25503466796875,-0.20799961686134338,-0.17531833052635193,0.40301835536956787
1772883302649640000,5.271639892578125,-0.2603813111782074,-0.11194105446338654,0.25106561183929443
1772883302666245600,5.28824560546875,-0.29535335302352905,-0.07742717117071152,0.08506298810243607
1772883302682850000,5.30485009765625,-0.2932153046131134,-0.1212567538022995,-0.021532999351620674
1772883302699455000,5.321455078125,-0.2603813111782074,-0.13607023656368256,-0.04795292019844055
1772883302716046800,5.338046875,-0.2451096773147583,-0.050243668258190155,-0.03497203439474106
1772883302732649000,5.35464892578125,-0.24984388053417206,0.09422596544027328,-0.026572637259960175
1772883302749240800,5.37124072265625,-0.24205535650253296,0.156686931848526,-0.035124752670526505
1772883302765862100,5.387862060546875,-0.22372940182685852,0.15241087973117828,-0.06612616032361984
1772883302782467000,5.404467041015625,-0.17012597620487213,0.11316278576850891,-0.1342376321554184
1772883302799072300,5.421072265625,-0.11407908797264099,0.04764748737215996,-0.17043140530586243
1772883302815664600,5.43766455078125,-0.049785517156124115,-0.020311269909143448,-0.17821992933750153
1772883302832288800,5.454288818359375,0.013133603148162365,-0.08429940044879913,-0.18341228365898132
1772883302848888000,5.47088818359375,0.06169738993048668,-0.09957103431224823,-0.18707747757434845
1772883302865496300,5.487496337890625,0.10277807712554932,-0.04108068719506264,-0.22357667982578278
1772883302882111700,5.50411181640625,0.14309518039226532,0.017867809161543846,-0.2606867551803589
1772883302898716400,5.52071630859375,0.17806722223758698,0.05803219974040985,-0.23594669997692108
1772883302915313400,5.5373134765625,0.20051652193069458,0.05345070734620094,-0.17058411240577698
1772883302931926800,5.5539267578125,0.22602014243602753,0.04382958263158798,-0.09560041129589081
1772883302948531200,5.57053125,0.2590068578720093,0.03634648025035858,-0.07391469180583954
1772883302965123300,5.587123291015625,0.28130343556404114,0.033597588539123535,-0.08689557760953903
1772883302981742300,5.603742431640625,0.29077184200286865,0.06963863968849182,-0.10186178237199783
1772883302998347500,5.620347412109375,0.29077184200286865,0.1189660057425499,-0.08918632566928864
1772883303014936600,5.6369365234375,0.30543261766433716,0.16722436249256134,-0.0858265683054924
1772883303031558100,5.65355810546875,0.3309362530708313,0.15622878074645996,-0.09773843735456467
1772883303048157700,5.67015771484375,0.347276896238327,0.09743300825357437,-0.08170322328805923
1772883303064774700,5.686774658203125,0.3536909818649292,0.0024434609804302454,-0.012064588256180286
1772883303081373200,5.703373291015625,0.3449861407279968,-0.07712173461914062,0.09285151958465576
1772883303097977900,5.719977783203125,0.32528573274612427,-0.1569923609495163,0.15347988903522491
1772883303114591200,5.73659130859375,0.2768746614456177,-0.20799961686134338,0.08246681094169617
1772883303131172400,5.75317236328125,0.21930062770843506,-0.08552113175392151,-0.09468411654233932
1772883303147789800,5.769789794921875,0.15241087973117828,0.005192354787141085,-0.35124751925468445
1772883303164403500,5.786403564453125,0.07467827945947647,0.007788531947880983,-0.5943718552589417
1772883303181003500,5.80300341796875,0.016951510682702065,0.004123340360820293,-0.7156286239624023
1772883303197608700,5.819608642578125,0.00733038317412138,0.04581489413976669,-0.6481280326843262
1772883303214199000,5.836198974609375,0.014508049935102463,0.08200865983963013,-0.4239404797554016
1772883303230802700,5.852802734375,0.05009094998240471,0.08964447677135468,-0.1241583600640297
1772883303247407600,5.86940771484375,0.13545936346054077,0.14737124741077423,0.15317445993423462
1772883303264016100,5.88601611328125,0.2370157092809677,0.2422080636024475,0.38347065448760986
1772883303280621000,5.90262109375,0.32039880752563477,0.2974913716316223,0.5458080768585205
1772883303297226000,5.91922607421875,0.3758348524570465,0.275958389043808,0.6101016402244568
1772883303313818400,5.935818359375,0.408974289894104,0.1690569519996643,0.565203070640564
1772883303330436600,5.9524365234375,0.42470407485961914,-0.004886921960860491,0.46150869131088257
1772883303347041500,5.96904150390625,0.413097620010376,-0.11713340878486633,0.38026362657546997
1772883303363651600,5.985651611328125,0.37827831506729126,-0.057879481464624405,0.35094207525253296
1772883303380265500,6.002265380859375,0.3608686327934265,0.013591751456260681,0.289702832698822
1772883303396870700,6.01887060546875,0.35521814227104187,0.05161811411380768,0.1921171247959137
1772883303413483300,6.035483154296875,0.3520110845565796,0.03741549700498581,0.10995574295520782
1772883303430077000,6.052076904296875,0.35552358627319336,0.042760565876960754,0.08445212244987488
1772883303446686700,6.068686767578125,0.37140607833862305,0.09178250283002853,0.09056077152490616
1772883303463260000,6.085260009765625,0.38087448477745056,0.14828753471374512,0.09407325088977814
1772883303479879700,6.101879638671875,0.3943135142326355,0.20128010213375092,0.05864306539297104
1772883303496501200,6.118501220703125,0.41691553592681885,0.18707747757434845,0.003512475173920393
1772883303513089800,6.13508984375,0.45921793580055237,0.15057829022407532,0.010079276748001575
1772883303529712000,6.151712158203125,0.4876231849193573,0.06444628536701202,0.029626963660120964
1772883303546315000,6.16831494140625,0.47601673007011414,-0.0064140851609408855,0.010690141469240189
1772883303562924000,6.184924072265625,0.4308127164840698,-0.03237585723400116,-0.055283304303884506
1772883303579510300,6.20151025390625,0.3956879675388336,-0.03191770985722542,-0.10537425428628922
1772883303596132000,6.218132080078125,0.36590829491615295,-0.0013744467869400978,-0.1189660057425499
1772883303612721700,6.2347216796875,0.3266601860523224,0.03588833287358284,-0.13469578325748444
1772883303629342500,6.251342529296875,0.27320948243141174,0.08170322328805923,-0.12202033400535583
1772883303645947100,6.267947021484375,0.21639901399612427,0.14416420459747314,-0.06780604273080826
1772883303662552600,6.284552490234375,0.1638645976781845,0.18478673696517944,0.008704829961061478
1772883303679140900,6.301140869140625,0.13087788224220276,0.1365283876657486,0.053297992795705795
1772883303695763000,6.317762939453125,0.10812314599752426,0.07238753139972687,0.10125091671943665
1772883303712351700,6.334351806640625,0.09651670604944229,0.033139441162347794,0.16294831037521362
1772883303728956400,6.350956298828125,0.06688974797725677,-0.06276640295982361,0.17928895354270935
1772883303745564400,6.367564453125,-0.005803219974040985,-0.13118331134319305,0.11239920556545258
1772883303762169600,6.384169677734375,-0.10323622822761536,-0.13637566566467285,-0.0065668015740811825
1772883303778774500,6.4007744140625,-0.20051652193069458,-0.11514809727668762,-0.09468411654233932
1772883303795379500,6.41737939453125,-0.24694228172302246,0.0029016099870204926,-0.10415252298116684
1772883303811972400,6.433972412109375,-0.304210901260376,0.11682797968387604,-0.10461067408323288
1772883303828590000,6.450590087890625,-0.38576140999794006,0.24526239931583405,-0.15302173793315887
1772883303845195300,6.4671953125,-0.4639521539211273,0.4280638098716736,-0.22861631214618683
1772883303861817600,6.483817626953125,-0.5606215596199036,0.5300782918930054,-0.3170390725135803
1772883303878402600,6.500402587890625,-0.6534730792045593,0.4970915913581848,-0.3903428912162781
1772883303895051000,6.517051025390625,-0.6939429044723511,0.3683517575263977,-0.40775254368782043
1772883303911613200,6.53361328125,-0.6922630667686462,0.24953845143318176,-0.39095374941825867
1772883303928218600,6.550218505859375,-0.6633996367454529,0.2021963894367218,-0.31352660059928894
1772883303944836400,6.56683642578125,-0.6197227835655212,0.16859880089759827,-0.17318029701709747
1772883303961448400,6.583448486328125,-0.5526803135871887,0.12919799983501434,0.023976460099220276
1772883303978033000,6.600032958984375,-0.47968193888664246,-0.007941247895359993,0.14767667651176453
1772883303994655000,6.616655029296875,-0.4213443100452423,-0.18631389737129211,0.17806722223758698
1772883304011252000,6.633251953125,-0.40622538328170776,-0.23609942197799683,0.23258693516254425
1772883304027865900,6.649865966796875,-0.4034765064716339,-0.19898934662342072,0.32681289315223694
1772883304044470000,6.666469970703125,-0.4079052805900574,-0.17379115521907806,0.41263946890830994
1772883304061076200,6.683076171875,-0.40683624148368835,-0.20433442294597626,0.38148534297943115
1772883304077700000,6.6997001953125,-0.4199698567390442,-0.2721404731273651,0.26832255721092224
1772883304094282800,6.71628271484375,-0.42562034726142883,-0.26893341541290283,0.14737124741077423
1772883304110920200,6.732920166015625,-0.44287729263305664,-0.2154827117919922,0.07406741380691528
1772883304127496700,6.74949658203125,-0.45463645458221436,-0.09529497474431992,0.01924225501716137
1772883304144093700,6.76609375,-0.4524984359741211,0.09957103431224823,-0.028099801391363144
1772883304169004000,6.791004150390625,-0.384845107793808,0.21471913158893585,-0.03451388701796532
1772883304185614000,6.807614013671875,-0.3153591752052307,0.17058411240577698,0.027488935738801956
1772883304202219500,6.824219482421875,-0.2574796974658966,0.03039054572582245,0.0455094613134861
1772883304218806800,6.840806884765625,-0.21823160350322723,-0.06200282275676727,0.011453723534941673
1772883304235416000,6.857416015625,-0.18570303916931152,-0.051770828664302826,-0.09178250283002853
1772883304252021200,6.874021240234375,-0.16569720208644867,-0.009162978269159794,-0.22876903414726257
1772883304268626000,6.8906259765625,-0.13515393435955048,0.04337143152952194,-0.3061962127685547
1772883304285230800,6.90723095703125,-0.10125091671943665,0.04230241850018501,-0.3020728528499603
1772883304301836500,6.92383642578125,-0.05467243865132332,-0.005039638374000788,-0.2704605758190155
1772883304318441500,6.94044140625,-0.0007635815418325365,-0.06444628536701202,-0.25961771607398987
1772883304335046100,6.957046142578125,0.051770828664302826,-0.12660181522369385,-0.2528982162475586
1772883304351668200,6.973668212890625,0.08124507963657379,-0.13148874044418335,-0.2096794992685318
1772883304368270800,6.990270751953125,0.11682797968387604,-0.10797043144702911,-0.1563815027475357
1772883304384876000,7.0068759765625,0.17180584371089935,-0.055741455405950546,-0.10735956579446793
1772883304401480400,7.02348046875,0.22678372263908386,-0.09300423413515091,-0.09896016865968704
1772883304418086000,7.0400859375,0.26679539680480957,-0.21059578657150269,-0.09651670604944229
1772883304434690800,7.05669091796875,0.2756529450416565,-0.24236078560352325,-0.06780604273080826
1772883304451295700,7.073295654296875,0.26801711320877075,-0.20204368233680725,-0.029932396486401558
1772883304467901200,7.089901123046875,0.24495697021484375,-0.03375030308961868,0.020463986322283745
1772883304484505900,7.106505859375,0.2587014436721802,0.16233743727207184,0.046273041516542435
1772883304501094700,7.1230947265625,0.2971859276294708,0.26771169900894165,0.040622539818286896
1772883304517714400,7.13971435546875,0.3341432809829712,0.13897185027599335,-0.014202617108821869
1772883304534324200,7.15632421875,0.3536909818649292,0.012064588256180286,-0.012217304669320583
1772883304550926600,7.172926513671875,0.31810808181762695,-0.128434419631958,0.051312681287527084
1772883304567532300,7.1895322265625,0.2643519341945648,-0.2970332205295563,0.06444628536701202
1772883304584137000,7.206136962890625,0.2399173229932785,-0.3455969989299774,-0.0633772686123848
1772883304600742700,7.22274267578125,0.25595253705978394,-0.19746218621730804,-0.31871894001960754
1772883304617346600,7.2393466796875,0.2701551616191864,0.06291911751031876,-0.5093088746070862
1772883304633952800,7.255952880859375,0.2710714638233185,0.1748601794242859,-0.5213735103607178
1772883304650557400,7.272557373046875,0.2594650089740753,0.20754146575927734,-0.3245221674442291
1772883304667162600,7.28916259765625,0.28496864438056946,0.1336267739534378,-0.02886338345706463
1772883304683767600,7.305767578125,0.3859141170978546,0.16982053220272064,0.3110831379890442
1772883304700373500,7.32237353515625,0.5180137157440186,0.2860376536846161,0.5522221922874451
1772883304716960500,7.33896044921875,0.611934244632721,0.29535335302352905,0.5792529582977295
1772883304733569300,7.3555693359375,0.6299547553062439,0.20097467303276062,0.4430300295352936
1772883304750174200,7.37217431640625,0.6116288304328918,0.1313360333442688,0.22052235901355743
1772883304766779600,7.388779541015625,0.5842925906181335,0.13637566566467285,0.016798794269561768
1772883304783384800,7.405384765625,0.5545129179954529,0.1635591685771942,-0.06459899991750717
1772883304799990000,7.421989990234375,0.5245805382728577,0.16065755486488342,-0.06444628536701202
1772883304816594700,7.4385947265625,0.4944954216480255,0.11942415684461594,-0.08628471940755844
1772883304833200000,7.4552001953125,0.4893030524253845,0.05910121276974678,-0.1722639948129654
1772883304849805800,7.471805908203125,0.5166392922401428,0.024434609338641167,-0.2474004179239273
1772883304866420200,7.488420166015625,0.5306891798973083,0.055283304303884506,-0.2541199326515198
1772883304883032600,7.505032470703125,0.5102251768112183,0.1414152979850769,-0.18524488806724548
1772883304899618800,7.521618896484375,0.4885394871234894,0.2093740701675415,-0.11682797968387604
1772883304916239600,7.538239501953125,0.49754974246025085,0.18616119027137756,-0.11988230794668198
1772883304932844000,7.554843994140625,0.5206099152565002,0.08811730891466141,-0.11362093687057495
1772883304949449000,7.571448974609375,0.5280929803848267,-0.09040805697441101,-0.0679587572813034
1772883304966055400,7.588055419921875,0.4789183437824249,-0.2796235680580139,-0.032070424407720566
1772883304982659600,7.60465966796875,0.3816380500793457,-0.3404046595096588,-0.04688390716910362
1772883304999265300,7.621265380859375,0.27947086095809937,-0.2428189367055893,-0.09453139454126358
1772883305015870200,7.6378701171875,0.21105393767356873,-0.07925976812839508,-0.14233160018920898
1772883305032475400,7.654475341796875,0.18066339194774628,-0.007024950347840786,-0.13988813757896423
1772883305049080000,7.671080078125,0.15653422474861145,-0.05696318298578262,-0.06414084881544113
1772883305065686000,7.68768603515625,0.11774427443742752,-0.18738290667533875,0.040164388716220856
1772883305082290000,7.7042900390625,0.04795292019844055,-0.303600013256073,0.08384125679731369
1772883305098896100,7.720896240234375,-0.033597588539123535,-0.33948835730552673,0.06215553730726242
1772883305115501300,7.737501220703125,-0.1339322030544281,-0.3260493278503418,0.004734205547720194
1772883305132105700,7.754105712890625,-0.23411411046981812,-0.24633140861988068,-0.04657847434282303
1772883305148708000,7.7707080078125,-0.3119994103908539,-0.16401731967926025,-0.08781187981367111
1772883305165316400,7.78731640625,-0.375529408454895,-0.1235474944114685,-0.11698069423437119
1772883305181921800,7.803921875,-0.4262312352657318,-0.10674870014190674,-0.10170906037092209
1772883305198509000,7.820509033203125,-0.46670106053352356,-0.058795779943466187,-0.0032070425804704428
1772883305215117600,7.83711767578125,-0.49785518646240234,-0.04138612002134323,0.11789698898792267
1772883305231723300,7.85372314453125,-0.5151121020317078,-0.05192354694008827,0.14782938361167908
1772883305248328000,7.870327880859375,-0.5169447064399719,-0.012828170321881771,0.05711590126156807
1772883305264933000,7.88693310546875,-0.5468770861625671,-0.023365596309304237,-0.1459967941045761
1772883305281538000,7.9035380859375,-0.6403394937515259,-0.21884247660636902,-0.36071592569351196
1772883305298143700,7.920143798828125,-0.7486153841018677,-0.37568211555480957,-0.3712533414363861
1772883305314748400,7.93674853515625,-0.7728972434997559,-0.2643519341945648,-0.19135354459285736
1772883305331353600,7.953353515625,-0.7255551815032959,-0.056352317333221436,-0.04795292019844055
1772883305347975200,7.96997509765625,-0.6342308521270752,0.1944078654050827,-0.06352998316287994
1772883305364578300,7.986578369140625,-0.5360342264175415,0.4960225820541382,-0.12461651116609573
1772883305381182500,8.003182373046876,-0.451582133769989,0.5803219676017761,-0.0910189226269722
1772883305397788000,8.019787841796875,-0.37537670135498047,0.3914119005203247,0.10476338863372803
1772883305414393000,8.03639306640625,-0.2932153046131134,0.10690141469240189,0.389426589012146
1772883305430998000,8.052998046875,-0.22067506611347198,-0.0555887371301651,0.616973876953125
1772883305447602700,8.069602783203125,-0.18005253374576569,-0.09605856239795685,0.6808093190193176
1772883305464187600,8.086187744140625,-0.17959438264369965,-0.1498146951198578,0.5911648273468018
1772883305480799000,8.102799072265626,-0.21044307947158813,-0.16493362188339233,0.39843684434890747
1772883305497399800,8.11939990234375,-0.22907446324825287,-0.1333213448524475,0.19578230381011963
1772883305514012200,8.13601220703125,-0.2278527319431305,-0.04306599870324135,0.09086620807647705
1772883305530628400,8.15262841796875,-0.21609358489513397,0.09804387390613556,0.076052725315094
1772883305547233300,8.1692333984375,-0.23029619455337524,0.19914206862449646,0.1010981947183609
1772883305563839500,8.185839599609375,-0.2539672255516052,0.2148718535900116,0.14569136500358582
1772883305580444000,8.20244384765625,-0.2353358417749405,0.14966198801994324,0.1820378452539444
1772883305597049300,8.21904931640625,-0.18417587876319885,-0.016951510682702065,0.16630806028842926
1772883305613654500,8.235654541015625,-0.13179416954517365,-0.17058411240577698,0.08811730891466141
1772883305630259500,8.252259521484374,-0.10522153973579407,-0.20097467303276062,-0.02626720629632473
1772883305646864100,8.268864013671875,-0.09285151958465576,-0.15012013912200928,-0.14294247329235077
1772883305663470300,8.28547021484375,-0.08002334833145142,-0.10842858254909515,-0.17928895354270935
1772883305680074200,8.30207421875,-0.06368270516395569,-0.06444628536701202,-0.12522737681865692
1772883305696663000,8.3186630859375,-0.04199698567390442,-0.05268712714314461,-0.047800205647945404
1772883305713271600,8.335271484375,0.008704829961061478,-0.01771509274840355,0.03145955875515938
1772883305729876500,8.35187646484375,0.07696902006864548,0.039095375686883926,0.06551529467105865
1772883305746481200,8.368481201171875,0.12324206531047821,0.03741549700498581,0.07284568250179291
1772883305763086800,8.3850869140625,0.1414152979850769,0.009621127508580685,0.10552696883678436
1772883305779691800,8.40169189453125,0.14798210561275482,-0.06352998316287994,0.17791450023651123
1772883305796296700,8.418296630859375,0.1514945775270462,-0.05619960278272629,0.25366178154945374
1772883305812902000,8.43490185546875,0.1609629988670349,-0.02168571576476097,0.2142609804868698
1772883305829511000,8.451510986328126,0.17547103762626648,-0.02825251780450344,0.12064588814973831
1772883305846126000,8.4681259765625,0.1609629988670349,-0.01237002108246088,0.10735956579446793
1772883305862731000,8.48473095703125,0.14263702929019928,-0.04153883829712868,0.14905111491680145
1772883305879336400,8.50133642578125,0.09987647086381912,-0.02535090781748295,0.22357667982578278
1772883305895941400,8.51794140625,0.0884227454662323,0.1059851199388504,0.24908030033111572
1772883305912546800,8.534546875,0.11789698898792267,0.16004669666290283,0.18524488806724548
1772883305929151700,8.55115185546875,0.17928895354270935,0.1388191282749176,0.14966198801994324
1772883305945756400,8.56775634765625,0.23197607696056366,0.08399397134780884,0.1944078654050827
1772883305962361900,8.58436181640625,0.244804248213768,-0.014049900695681572,0.18005253374576569
1772883305978967300,8.60096728515625,0.2165517359972,-0.14844025671482086,0.03145955875515938
1772883305995571700,8.61757177734375,0.1736384481191635,-0.2142609804868698,-0.18096883594989777
1772883306012177200,8.63417724609375,0.14263702929019928,-0.17898350954055786,-0.28649580478668213
1772883306028783000,8.650783203125,0.13897185027599335,-0.08414668589830399,-0.2321287989616394
1772883306045387300,8.66738720703125,0.17760907113552094,0.08521570265293121,-0.05192354694008827
1772883306061992200,8.6839921875,0.244804248213768,0.3124575614929199,0.15027284622192383
1772883306078597600,8.70059765625,0.3245221674442291,0.43967026472091675,0.31673362851142883
1772883306095202600,8.71720263671875,0.4196644127368927,0.36942076683044434,0.3721696436405182
1772883306111808300,8.733808349609374,0.4712825417518616,0.19593502581119537,0.34758231043815613
1772883306128413400,8.750413330078125,0.48838675022125244,0.09162978827953339,0.32940909266471863
1772883306144999700,8.766999755859375,0.52702397108078,0.11698069423437119,0.34574973583221436
1772883306161631200,8.78363134765625,0.5638286471366882,0.12049316614866257,0.38377609848976135
1772883306178211600,8.800211669921875,0.5658139586448669,0.10949759185314178,0.384845107793808
1772883306194819600,8.816819580078125,0.5444336533546448,0.04108068719506264,0.2791654169559479
1772883306211422200,8.833422119140625,0.48716503381729126,-0.11163562536239624,0.09957103431224823
1772883306228030500,8.850030517578125,0.4306600093841553,-0.2571742534637451,-0.07666359096765518
1772883306244630500,8.866630615234374,0.40515637397766113,-0.2503020465373993,-0.17516560852527618
1772883306261244400,8.883244384765625,0.37339138984680176,-0.10445795953273773,-0.22098049521446228
1772883306277845000,8.899844970703125,0.3459024429321289,0.20372356474399567,-0.19379699230194092
1772883306294450700,8.91645068359375,0.3191770911216736,0.4335615932941437,-0.17272214591503143
1772883306311055600,8.9330556640625,0.2831360399723053,0.3741549551486969,-0.19593502581119537
1772883306327661600,8.94966162109375,0.2356412708759308,0.035124752670526505,-0.17180584371089935
1772883306344280600,8.966280517578125,0.19120082259178162,-0.20295998454093933,-0.09239336848258972
1772883306360885000,8.982885009765624,0.19303341209888458,-0.17638733983039856,-0.023365596309304237
1772883306377490000,8.999489990234375,0.21762074530124664,0.0065668015740811825,-0.008246680721640587
1772883306394094800,9.0160947265625,0.21151208877563477,0.1359175145626068,-0.025961773470044136
1772883306410683600,9.03268359375,0.15592335164546967,0.18356500566005707,-0.042760565876960754
1772883306427305000,9.049304931640625,0.08170322328805923,0.15577064454555511,-0.017867809161543846
1772883306443909000,9.0659091796875,0.055283304303884506,0.13240504264831543,0.014508049935102463
1772883306460508700,9.0825087890625,0.05451972410082817,0.10873401165008545,0.06780604273080826
1772883306477120500,9.09912060546875,0.030695978552103043,0.04657847434282303,0.16691893339157104
1772883306493709000,9.115708984375,-0.027030786499381065,-0.1495092660188675,0.2603813111782074
1772883306510330600,9.13233056640625,-0.11988230794668198,-0.39935314655303955,0.3240640163421631
1772883306526935800,9.148935791015624,-0.19883663952350616,-0.4876231849193573,0.2984076738357544
1772883306543524000,9.165524169921875,-0.2557998299598694,-0.4749477207660675,0.204487144947052
1772883306560146400,9.182146484375,-0.28848111629486084,-0.351400226354599,0.11682797968387604
1772883306576751000,9.198751220703125,-0.32039880752563477,-0.2099849283695221,0.06734789162874222
1772883306593356000,9.21535595703125,-0.38698312640190125,-0.058795779943466187,0.06276640295982361
1772883306609961000,9.2319609375,-0.43768495321273804,0.020922135561704636,0.0981965884566307
1772883306626566700,9.248566650390625,-0.43508878350257874,0.014508049935102463,0.15485434234142303
1772883306643155000,9.265155029296874,-0.4311181604862213,-0.15806138515472412,0.15500704944133759
1772883306659776800,9.28177685546875,-0.4625777006149292,-0.244804248213768,0.10384709388017654
1772883306676364300,9.2983642578125,-0.5070181488990784,-0.13087788224220276,0.009926560334861279
1772883306692973300,9.314973388671875,-0.5529857873916626,-0.05925392732024193,-0.19746218621730804
1772883306709578500,9.33157861328125,-0.623235285282135,-0.05543602257966995,-0.45555275678634644
1772883306726183400,9.348183349609375,-0.6507241725921631,0.0328340083360672,-0.608421802520752
1772883306742788400,9.364788330078126,-0.6099489331245422,0.23884831368923187,-0.5740606188774109
1772883306759394000,9.38139404296875,-0.4980078935623169,0.36651915311813354,-0.3862195611000061
1772883306775998700,9.397998779296875,-0.342695415019989,0.4616613984107971,-0.10552696883678436
1772883306792604200,9.414604248046874,-0.24587325751781464,0.43936482071876526,0.19089539349079132
1772883306809208800,9.431208740234375,-0.17608191072940826,0.27977627515792847,0.4564690589904785
1772883306825831400,9.44783154296875,-0.06551529467105865,0.14813482761383057,0.6618725061416626
1772883306842432800,9.464432861328126,0.050854530185461044,0.08368854224681854,0.7015787363052368
1772883306859038200,9.4810380859375,0.1010981947183609,0.17119498550891876,0.613461434841156
1772883306875643100,9.49764306640625,0.07406741380691528,0.49525898694992065,0.7003570199012756
1772883306892248800,9.514248779296874,0.051312681287527084,0.30741792917251587,0.6954700946807861
1772883306908853500,9.530853515625,0.061391957104206085,-0.07864890247583389,0.5090034604072571
1772883306925452500,9.54745263671875,0.06108652427792549,-0.2922990322113037,0.2649627923965454
1772883306942046700,9.564046630859375,0.00015271631127689034,-0.21868975460529327,0.04764748737215996
1772883306958669300,9.58066943359375,-0.050854530185461044,-0.04948008432984352,-0.04001167416572571
1772883306975274000,9.59727392578125,-0.09117163717746735,0.11682797968387604,-0.006719517521560192
