time,seconds_elapsed,z,y,x
1772883297543559400,0.165559326171875,8.647661209106445,2.506481647491455,-0.2566302418708801
1772883297560161800,0.182161865234375,8.82233715057373,2.2815563678741455,-0.5461617708206177
1772883297576767500,0.198767578125,9.028120040893555,2.204387903213501,-0.7914260625839233
1772883297593361200,0.215361083984375,9.21416187286377,2.173879384994507,-0.9601200819015503
1772883297609980700,0.231980712890625,9.248259544372559,2.1786649227142334,-0.8793623447418213
1772883297626600000,0.248599853515625,9.111868858337402,2.362314224243164,-0.7238288521766663
1772883297643196400,0.265196533203125,8.94257640838623,2.4562325477600098,-0.6885347366333008
1772883297659803000,0.281802978515625,8.670990943908691,2.724228620529175,-0.5132604837417603
1772883297676414000,0.2984140625,8.715258598327637,2.967698335647583,-0.33918261528015137
1772883297693019100,0.31501904296875,8.812167167663574,2.9760732650756836,-0.09571290761232376
1772883297709619700,0.33161962890625,8.61894702911377,3.0891339778900146,-0.08434699475765228
1772883297726226700,0.348226806640625,8.507680892944336,3.1405797004699707,-0.10707881301641464
1772883297742833700,0.364833740234375,8.559126853942871,3.2410783767700195,-0.01615155301988125
1772883297759421400,0.38142138671875,8.659625053405762,3.2141590118408203,-0.0933200865983963
1772883297776034600,0.39803466796875,8.475378036499023,3.2991042137145996,-0.2063809484243393
1772883297792632000,0.414632080078125,8.36411190032959,3.3690943717956543,-0.1860419660806656
1772883297809250000,0.43125,8.58903694152832,3.428316593170166,-0.05802594870328903
1772883297825836300,0.447836181640625,8.72782039642334,3.452244758605957,0.0849452018737793
1772883297842465500,0.464465576171875,8.831908226013184,3.5814573764801025,0.25722843408584595
1772883297859051300,0.48105126953125,8.94676399230957,3.638885021209717,0.4247260093688965
1772883297875670500,0.49767041015625,9.234500885009766,3.669393539428711,0.576670229434967
1772883297892298800,0.514298828125,9.521040916442871,3.733999729156494,0.6711867451667786
1772883297908872200,0.5308720703125,9.66102123260498,3.8979079723358154,0.6520441770553589
1772883297925486300,0.547486328125,9.716055870056152,4.013959884643555,0.5904290080070496
1772883297942095600,0.564095703125,9.670592308044434,4.142574310302734,0.5868397355079651
1772883297958682000,0.58068212890625,9.506684303283691,4.226323127746582,0.6604190468788147
1772883297975283000,0.597282958984375,9.594022750854492,4.2209391593933105,0.8464609980583191
1772883297991885300,0.61388525390625,10.179067611694336,3.9672999382019043,1.0707881450653076
1772883298008503000,0.6305029296875,10.649256706237793,3.680161237716675,1.0947163105010986
1772883298025103600,0.647103515625,10.676774978637695,3.4091739654541016,0.9248259663581848
1772883298041713000,0.663712890625,10.529616355895996,3.50129771232605,0.5581258535385132
1772883298058316000,0.68031591796875,9.896714210510254,3.55214524269104,0.5814558863639832
1772883298074917000,0.696917236328125,9.270991325378418,3.576671600341797,0.8051848411560059
1772883298091515100,0.71351513671875,9.318249702453613,3.9732820987701416,0.3439682424068451
1772883298108141800,0.730141845703125,9.129216194152832,3.8841493129730225,0.4492524564266205
1772883298124732700,0.746732666015625,8.885149002075195,3.7405800819396973,0.784247636795044
1772883298141359600,0.763359619140625,8.891729354858398,3.4845480918884277,1.0791629552841187
1772883298157962800,0.779962646484375,8.94676399230957,3.111267566680908,1.1048858165740967
1772883298174574000,0.796573974609375,9.117850303649902,2.5842485427856445,0.8608179688453674
1772883298191164200,0.8131640625,9.193224906921387,2.0745773315429688,0.6269195079803467
1772883298207777800,0.82977783203125,9.348159790039062,1.6803597211837769,0.5180460810661316
1772883298224380700,0.846380615234375,9.432506561279297,1.3824533224105835,0.137587308883667
1772883298240989000,0.862989013671875,9.565906524658203,1.2305090427398682,-0.4145565330982208
1772883298257591300,0.87959130859375,9.693922996520996,1.2245270013809204,-0.6544370055198669
1772883298274223900,0.896223876953125,9.689735412597656,1.4165509939193726,-0.7292127013206482
1772883298290794800,0.912794677734375,9.496515274047852,1.8759729862213135,-0.36610186100006104
1772883298307406300,0.92940625,9.266803741455078,2.313859462738037,0.18843477964401245
1772883298324004900,0.9460048828125,8.948558807373047,2.664407968521118,0.7860422134399414
1772883298340617200,0.9626171875,8.793025016784668,2.913261651992798,1.1808580160140991
1772883298357235700,0.979235595703125,8.989236831665039,2.9617161750793457,1.31365966796875
1772883298373822200,0.995822265625,9.317651748657227,2.836092948913574,1.3639088869094849
1772883298390459000,1.012458984375,9.610174179077148,2.7726831436157227,1.31365966796875
1772883298407051000,1.029051025390625,9.608977317810059,2.7361927032470703,1.0600204467773438
1772883298423639300,1.045639404296875,9.295517921447754,2.7451658248901367,0.7076773047447205
1772883298440243700,1.06224365234375,8.785248756408691,2.7672994136810303,0.26620152592658997
1772883298456847000,1.07884716796875,8.24985408782959,2.8791637420654297,-0.05024927482008934
1772883298473462800,1.095462890625,7.918448448181152,2.8911280632019043,-0.21595224738121033
1772883298490069800,1.11206982421875,7.923233985900879,2.8624141216278076,-0.2638086974620819
1772883298506626000,1.1286259765625,8.264809608459473,2.7661030292510986,-0.2955136001110077
1772883298523256600,1.145256591796875,8.681758880615234,2.7320053577423096,-0.2548356056213379
1772883298539862300,1.1618623046875,9.025727272033691,2.788236618041992,-0.19920247793197632
1772883298556467200,1.17846728515625,9.092127799987793,2.812762975692749,-0.23270200192928314
1772883298573073200,1.1950732421875,8.9312105178833,2.9318058490753174,-0.3696911036968231
1772883298589676500,1.211676513671875,9.015557289123535,2.991028308868408,-0.45583271980285645
1772883298606282200,1.2282822265625,9.1052885055542,3.025724172592163,-0.5084748268127441
1772883298622905000,1.244905029296875,8.98803997039795,3.149552822113037,-0.5688936114311218
1772883298639503600,1.261503662109375,9.029315948486328,3.2644083499908447,-0.5060819983482361
1772883298656098300,1.278098388671875,9.355937004089355,3.242872953414917,-0.39840495586395264
1772883298672716300,1.29471630859375,9.677172660827637,3.198007345199585,-0.3481557071208954
1772883298689318100,1.311318115234375,9.879366874694824,3.1663026809692383,-0.30149564146995544
1772883298705906400,1.327906494140625,10.17846965789795,3.0544381141662598,-0.26081767678260803
1772883298722530300,1.3445302734375,10.571490287780762,3.273979663848877,-0.251844584941864
1772883298739138000,1.361137939453125,10.591829299926758,3.47019100189209,-0.23629122972488403
1772883298755712500,1.37771240234375,10.477572441101074,3.4917263984680176,-0.10169496387243271
1772883298772345300,1.394345458984375,10.587043762207031,3.544966697692871,-0.020338991656899452
1772883298788946400,1.410946533203125,10.983654022216797,3.376272678375244,0.1052841991186142
1772883298805561000,1.42756103515625,11.623135566711426,2.9521448612213135,0.13160525262355804
1772883298822164200,1.444164306640625,11.942577362060547,2.520240545272827,0.14117653667926788
1772883298838761000,1.460760986328125,11.726027488708496,2.0721843242645264,0.18723836541175842
1772883298855358000,1.47735791015625,11.206785202026367,1.7455641031265259,0.268594354391098
1772883298871976400,1.4939765625,10.894521713256836,1.5314065217971802,0.2548356056213379
1772883298888580900,1.510580810546875,10.941181182861328,1.3178470134735107,0.1381855010986328
1772883298905187600,1.5271875,10.953743934631348,1.079761266708374,-0.05024927482008934
1772883298921787600,1.54378759765625,10.357333183288574,0.9924231767654419,-0.04307080805301666
1772883298938402600,1.560402587890625,9.245866775512695,1.3663017749786377,0.11425728350877762
1772883298954979000,1.57697900390625,8.305487632751465,1.7964116334915161,0.16151553392410278
1772883298971592000,1.593592041015625,7.937591075897217,2.100898265838623,0.44745782017707825
1772883298988209700,1.610209716796875,7.849056243896484,2.289931297302246,0.6550351977348328
1772883299004804900,1.626804931640625,8.414958953857422,2.2432711124420166,0.6753742098808289
1772883299021431600,1.643431640625,8.897710800170898,2.263011932373047,0.6634100675582886
1772883299038017500,1.660017578125,8.975478172302246,2.468794822692871,0.7411768436431885
1772883299054616800,1.676616943359375,8.641678810119629,2.7224340438842773,0.8500502705574036
1772883299071226400,1.693226318359375,8.440681457519531,2.9180471897125244,0.7190431952476501
1772883299087829200,1.709829345703125,8.648857116699219,2.950948476791382,0.41156548261642456
1772883299104421400,1.72642138671875,8.944969177246094,2.913261651992798,0.20398813486099243
1772883299121047800,1.7430478515625,9.400801658630371,2.7661030292510986,0.047258246690034866
1772883299137659000,1.759658935546875,9.728618621826172,2.6123640537261963,-0.02751746028661728
1772883299154248000,1.776248046875,9.748957633972168,2.5734808444976807,0.03469592705368996
1772883299170870800,1.792870849609375,9.81117057800293,2.6075785160064697,0.10588239878416061
1772883299187470600,1.809470703125,9.81954574584961,2.6554348468780518,0.05383851006627083
1772883299204081700,1.82608154296875,9.897313117980957,2.612962245941162,0.09571290761232376
1772883299220687400,1.842687255859375,10.013364791870117,2.630908489227295,0.38225340843200684
1772883299237294800,1.859294921875,9.773484230041504,2.7463622093200684,0.600000262260437
1772883299253856500,1.8758564453125,9.221938133239746,2.8498518466949463,0.6897311210632324
1772883299270497500,1.89249755859375,8.703892707824707,2.8875386714935303,0.6550351977348328
1772883299287098600,1.9090986328125,8.21874713897705,2.973680257797241,0.6197410821914673
1772883299303712300,1.925712158203125,7.822137355804443,3.184846878051758,0.5712863802909851
1772883299320313300,1.942313232421875,7.502695560455322,3.3684961795806885,0.550349235534668
1772883299345224200,1.96722412109375,7.311867713928223,3.7746777534484863,0.32961133122444153
1772883299361821000,1.983821044921875,7.428517818450928,3.868596076965332,0.11904292553663254
1772883299378473000,2.000472900390625,7.559525012969971,4.013959884643555,0.06699903309345245
1772883299395026000,2.01702587890625,7.94297456741333,4.243072986602783,0.11425728350877762
1772883299411641300,2.033641357421875,8.492725372314453,4.347758769989014,0.32243284583091736
1772883299428233200,2.050233154296875,8.920442581176758,4.265804767608643,0.3720839321613312
1772883299444852000,2.06685205078125,9.023334503173828,4.118646144866943,0.3128615617752075
1772883299461464800,2.08346484375,9.21117115020752,4.039682865142822,0.30149564146995544
1772883299478063000,2.10006298828125,9.689735412597656,4.006781578063965,0.26081767678260803
1772883299494651400,2.1166513671875,10.059426307678223,3.916452407836914,0.10468599200248718
1772883299511265000,2.13326513671875,10.179665565490723,4.030111312866211,-0.14356936514377594
1772883299527860000,2.14985986328125,9.835697174072266,4.289134502410889,-0.10169496387243271
1772883299544469500,2.166469482421875,9.250054359436035,4.438685894012451,0.0891326442360878
1772883299561076700,2.18307666015625,9.273384094238281,4.298107624053955,0.3415754437446594
1772883299577680100,2.19968017578125,9.91825008392334,3.9349968433380127,0.5599204897880554
1772883299594284800,2.216284912109375,10.538589477539062,3.3092737197875977,0.6711867451667786
1772883299610905600,2.232905517578125,10.672587394714355,2.770888566970825,0.5856433510780334
1772883299627508200,2.24950830078125,10.433304786682129,2.4771697521209717,0.43130627274513245
1772883299644114400,2.266114501953125,9.979267120361328,2.4113669395446777,0.3236292600631714
1772883299660715300,2.28271533203125,9.416953086853027,2.482553482055664,0.24107688665390015
1772883299677324300,2.29932421875,9.063413619995117,2.459223508834839,0.23808585107326508
1772883299693928000,2.315927978515625,9.158528327941895,2.5124638080596924,0.3194418251514435
1772883299710532400,2.332532470703125,9.46301555633545,2.6727828979492188,0.45284169912338257
1772883299727123200,2.349123291015625,9.567103385925293,2.848057270050049,0.8027920126914978
1772883299743743200,2.3657431640625,9.34457015991211,3.081955671310425,1.140179991722107
1772883299760348400,2.382348388671875,8.819944381713867,3.2578279972076416,1.1497513055801392
1772883299776954400,2.398954345703125,8.425128936767578,3.3780672550201416,1.1335997581481934
1772883299793558000,2.41555810546875,8.404789924621582,3.445066452026367,1.1437692642211914
1772883299810163200,2.4321630859375,8.970691680908203,3.3469607830047607,1.0199406147003174
1772883299826753800,2.44875390625,9.556933403015137,3.1250264644622803,0.8093722462654114
1772883299843378200,2.465378173828125,9.720243453979492,3.0233314037323,0.6167500615119934
1772883299859979300,2.481979248046875,9.486943244934082,2.9216363430023193,0.44027936458587646
1772883299876584000,2.498583984375,8.870193481445312,3.032304525375366,0.1621137410402298
1772883299893189000,2.515189208984375,8.407780647277832,3.139383316040039,-0.0687936544418335
1772883299909793000,2.53179296875,8.10807991027832,3.2518460750579834,-0.18544375896453857
1772883299926387000,2.548386962890625,8.000402450561523,3.355933666229248,-0.20338992774486542
1772883299943006000,2.565005859375,8.153543472290039,3.390629768371582,-0.1417747437953949
1772883299959609600,2.581609619140625,8.416155815124512,3.473181962966919,0.06759724020957947
1772883299976216600,2.598216552734375,8.4771728515625,3.597010612487793,0.22133609652519226
1772883299992804000,2.61480419921875,8.308478355407715,3.7046875953674316,0.2949153780937195
1772883300009429000,2.631428955078125,8.263014793395996,3.82373046875,0.27696922421455383
1772883300026017500,2.648017578125,8.395217895507812,3.892524242401123,0.25722843408584595
1772883300042623200,2.664623291015625,8.328219413757324,3.924229145050049,0.33439695835113525
1772883300059239000,2.681239013671875,8.134998321533203,3.99900484085083,0.3026920557022095
1772883300075832000,2.69783203125,8.090731620788574,4.070191383361816,0.32243284583091736
1772883300092458500,2.71445849609375,8.132007598876953,4.124628067016602,0.20338992774486542
1772883300109055200,2.73105517578125,8.087141990661621,4.210171222686768,0.1657029688358307
1772883300125645600,2.7476455078125,8.105687141418457,4.249054908752441,0.17108681797981262
1772883300142261500,2.764261474609375,8.306683540344238,4.25084924697876,0.16450655460357666
1772883300158873600,2.78087353515625,8.551349639892578,4.229313850402832,0.2111666053533554
1772883300175477500,2.7974775390625,8.873184204101562,4.211966037750244,0.39541393518447876
1772883300192083500,2.81408349609375,9.20997428894043,4.18564510345459,0.5850451588630676
1772883300208685000,2.83068505859375,9.57069206237793,4.0797624588012695,0.5676971673965454
1772883300225271800,2.847271728515625,9.92124080657959,4.153341770172119,0.18364913761615753
1772883300241895000,2.86389501953125,10.045069694519043,4.30588436126709,-0.1698904037475586
1772883300258502100,2.880502197265625,9.90987491607666,4.371686935424805,-0.18783657252788544
1772883300275106300,2.897106201171875,9.651450157165527,4.622933387756348,-0.2225325107574463
1772883300291695000,2.913695068359375,9.448060035705566,4.801198482513428,-0.06699903309345245
1772883300308306000,2.930305908203125,9.498309135437012,4.7988057136535645,0.27696922421455383
1772883300324909000,2.946908935546875,10.203594207763672,4.479363918304443,0.4618147611618042
1772883300341515000,2.963514892578125,11.132009506225586,3.625126361846924,0.851844847202301
1772883300358122800,2.980122802734375,11.80199909210205,2.870789051055908,0.9098708033561707
1772883300374725400,2.996725341796875,12.154342651367188,2.12542462348938,0.7058826684951782
1772883300391345400,3.013345458984375,11.771491050720215,1.7084753513336182,0.2267199456691742
1772883300407936000,3.02993603515625,11.086545944213867,1.576271891593933,-0.2626122832298279
1772883300424553700,3.0465537109375,10.208977699279785,1.6671991348266602,-0.28115665912628174
1772883300441159200,3.0631591796875,9.09272575378418,2.0656042098999023,-0.12323036789894104
1772883300457763600,3.079763671875,8.228917121887207,2.4526431560516357,-0.0729810893535614
1772883300474369000,3.096369140625,7.83410120010376,2.610569477081299,0.007178467698395252
1772883300490961000,3.1129609375,8.055437088012695,2.657827854156494,0.364905446767807
1772883300507564300,3.129564208984375,8.3629150390625,2.730210542678833,0.6843472719192505
1772883300524170800,3.146170654296875,8.670392990112305,2.661417007446289,0.7250252366065979
1772883300540775000,3.16277490234375,8.950352668762207,2.4610180854797363,0.5018945336341858
1772883300557381400,3.17938134765625,9.302098274230957,2.255833625793457,0.24526432156562805
1772883300573986600,3.195986572265625,9.633503913879395,2.117648124694824,0.050847481936216354
1772883300590608100,3.212608154296875,9.752547264099121,2.100898265838623,-0.05503492057323456
1772883300607210200,3.229210205078125,9.55633544921875,2.079961061477661,-0.15493527054786682
1772883300623799000,3.245799072265625,9.186046600341797,2.181057929992676,-0.12323036789894104
1772883300640424000,3.262423828125,8.708678245544434,2.386242389678955,-0.0568295381963253
1772883300657022700,3.279022705078125,8.352147102355957,2.5537400245666504,0.017946170642971992
1772883300673622800,3.295622802734375,8.181658744812012,2.733799934387207,0.06819544732570648
1772883300690235400,3.3122353515625,8.276175498962402,2.8384859561920166,0.21236300468444824
1772883300706840600,3.328840576171875,8.500502586364746,2.9072794914245605,0.2829512655735016
1772883300723429400,3.345429443359375,8.672187805175781,2.984447956085205,0.44027936458587646
1772883300740032000,3.362031982421875,8.665008544921875,3.1507492065429688,0.6041877269744873
1772883300756639000,3.378638916015625,8.528019905090332,3.3445677757263184,0.7214360237121582
1772883300773247200,3.395247314453125,8.501100540161133,3.4881372451782227,0.6604190468788147
1772883300789870300,3.411870361328125,8.605188369750977,3.4953157901763916,0.4827519655227661
1772883300806471400,3.428471435546875,8.760722160339355,3.5754752159118652,0.2961117923259735
1772883300823076600,3.44507666015625,8.844470977783203,3.6675989627838135,0.24825534224510193
1772883300839678700,3.4616787109375,8.663812637329102,3.8943188190460205,0.36610186100006104
1772883300856286000,3.478285888671875,8.675776481628418,4.0797624588012695,0.5395814776420593
1772883300872896800,3.494896728515625,8.910273551940918,4.119842529296875,0.6101697683334351
1772883300889496800,3.511496826171875,9.256035804748535,4.032504558563232,0.6119644045829773
1772883300906102000,3.52810205078125,9.792028427124023,3.799204111099243,0.6029912829399109
1772883300922677200,3.54467724609375,10.259825706481934,3.5844483375549316,0.5838487148284912
1772883300939334400,3.56133447265625,10.585248947143555,3.531806230545044,0.44327038526535034
1772883300955917800,3.577917724609375,10.76112174987793,3.572484254837036,0.37088751792907715
1772883300972506000,3.594506103515625,10.62114143371582,3.666402578353882,0.4247260093688965
1772883300989113900,3.61111376953125,10.392626762390137,3.87876558303833,0.47557350993156433
1772883301005719600,3.627719482421875,10.023533821105957,4.142574310302734,0.45583271980285645
1772883301022324200,3.64432421875,9.54197883605957,4.097708702087402,0.6059823632240295
1772883301038928600,3.6609287109375,9.638887405395508,3.693321704864502,1.033101201057434
1772883301055521000,3.67752099609375,10.572687149047852,2.964707374572754,1.2951152324676514
1772883301072163000,3.6941630859375,11.46102237701416,2.2995026111602783,1.3142578601837158
1772883301088759000,3.710759033203125,11.94197940826416,1.83828604221344,1.0067801475524902
1772883301105364000,3.727364013671875,11.620144844055176,1.5589239597320557,0.7722834944725037
1772883301121961500,3.74396142578125,10.559526443481445,1.6265212297439575,0.5060819983482361
1772883301138573600,3.760573486328125,9.494720458984375,1.960319995880127,0.3900300860404968
1772883301155163000,3.777162841796875,8.870193481445312,2.3605196475982666,0.38703906536102295
1772883301171784400,3.793784423828125,8.47298526763916,2.6979074478149414,0.6783652305603027
1772883301188389000,3.81038916015625,8.277970314025879,2.991028308868408,0.9020941257476807
1772883301204977200,3.82697705078125,8.339585304260254,3.057429075241089,1.0504491329193115
1772883301221585700,3.843585693359375,8.526823043823242,3.0305099487304688,1.073180913925171
1772883301238204400,3.860204345703125,8.661419868469238,2.9515466690063477,0.9332008361816406
1772883301254793200,3.876793212890625,8.679964065551758,2.9479575157165527,0.8129615187644958
1772883301271415300,3.893415283203125,8.471190452575684,3.014956474304199,0.5563312768936157
1772883301288019500,3.91001953125,8.237890243530273,3.128615617752075,0.3481557071208954
1772883301304625200,3.926625244140625,7.969295978546143,3.2679975032806396,-0.06041877344250679
1772883301321227800,3.943227783203125,7.83111047744751,3.3888349533081055,-0.3601198196411133
1772883301337835000,3.9598349609375,7.64865779876709,3.64127779006958,-0.4911268353462219
1772883301354423600,3.976423583984375,7.476972579956055,3.864408493041992,-0.5078766345977783
1772883301371046000,3.9930458984375,7.52423095703125,3.9314076900482178,-0.4211367964744568
1772883301387650300,4.009650390625,7.893921852111816,3.9152560234069824,-0.26081767678260803
1772883301404256300,4.02625634765625,8.61475944519043,3.7459638118743896,-0.2566302418708801
1772883301420844000,4.042843994140625,8.96231746673584,3.5910286903381348,-0.21176479756832123
1772883301437465900,4.0594658203125,8.894122123718262,3.6430723667144775,-0.24466611444950104
1772883301454059000,4.07605908203125,8.601598739624023,3.707080364227295,-0.2189432680606842
1772883301470659300,4.092659423828125,8.286943435668945,3.9320058822631836,-0.09092725813388824
1772883301487267300,4.109267333984375,8.270193099975586,4.122235298156738,0.06819544732570648
1772883301503873000,4.125873046875,8.417949676513672,4.166502475738525,0.1010967567563057
1772883301520477700,4.142477783203125,8.521439552307129,4.211966037750244,-0.028115665540099144
1772883301537083000,4.159082763671875,8.718249320983887,4.180261135101318,-0.053240302950143814
1772883301553675000,4.175675048828125,8.900702476501465,4.139583110809326,-0.07836493849754333
1772883301570310400,4.192310302734375,8.861818313598633,4.1629133224487305,-0.07836493849754333
1772883301586912000,4.208912109375,9.10110092163086,4.179663181304932,-0.0364905446767807
1772883301603494700,4.22549462890625,9.485747337341309,4.068994998931885,-0.02512463741004467
1772883301620134400,4.242134521484375,9.637691497802734,3.875176191329956,-0.09391828626394272
1772883301636727300,4.258727294921875,9.707083702087402,4.179064750671387,-0.3122633695602417
1772883301653316600,4.275316650390625,9.501300811767578,4.369294166564941,-0.4295116662979126
1772883301669938000,4.29193798828125,9.605986595153809,4.423132419586182,-0.4247260093688965
1772883301686542600,4.30854248046875,9.726823806762695,4.6061835289001465,-0.4097708761692047
1772883301703147800,4.325147705078125,9.469595909118652,4.597808837890625,-0.3080759048461914
1772883301719736300,4.341736328125,9.31884765625,4.54636287689209,-0.0729810893535614
1772883301736358100,4.358358154296875,9.561718940734863,4.380061626434326,0.04366901144385338
1772883301752969500,4.374969482421875,10.259825706481934,3.9326040744781494,0.12263216078281403
1772883301769568800,4.39156884765625,10.52483081817627,3.421736478805542,0.3565305769443512
1772883301786173400,4.40817333984375,9.339784622192383,2.8899314403533936,0.584446907043457
1772883301802779000,4.42477880859375,8.464012145996094,2.6979074478149414,0.7022934556007385
1772883301819377000,4.441376953125,8.796015739440918,2.4837498664855957,0.41216370463371277
1772883301835979300,4.457979248046875,10.039685249328613,2.145763635635376,0.03888336941599846
1772883301852582700,4.474582763671875,10.613365173339844,2.0452651977539062,-0.3236292600631714
1772883301869199600,4.49119970703125,10.333404541015625,2.129014015197754,-0.45523449778556824
1772883301885787600,4.50778759765625,9.711869239807129,2.375474691390991,-0.35892340540885925
1772883301902409000,4.524408935546875,9.29312515258789,2.575275421142578,-0.19262222945690155
1772883301918997800,4.540997802734375,9.262018203735352,2.7320053577423096,-0.05742774158716202
1772883301935619300,4.557619384765625,9.328418731689453,2.775674343109131,-0.0526420995593071
1772883301952196400,4.5741962890625,9.459425926208496,2.657827854156494,-0.08315058797597885
1772883301968816400,4.59081640625,9.720243453979492,2.5076780319213867,-0.14297115802764893
1772883301985421000,4.607421142578125,10.142577171325684,2.3706889152526855,-0.3613162338733673
1772883302002018800,4.624018798828125,10.219745635986328,2.3054845333099365,-0.4773681163787842
1772883302018631400,4.64063134765625,9.791430473327637,2.420340061187744,-0.4785645306110382
1772883302035233300,4.6572333984375,9.29611587524414,2.5770699977874756,-0.42711883783340454
1772883302051831000,4.6738310546875,8.771489143371582,2.772084951400757,-0.3415754437446594
1772883302068463900,4.6904638671875,8.386244773864746,2.9204399585723877,-0.2997010350227356
1772883302085065700,4.707065673828125,8.115856170654297,3.032304525375366,-0.3116651475429535
1772883302101670700,4.723670654296875,8.11525821685791,3.0801608562469482,-0.2590230405330658
1772883302118257400,4.74025732421875,8.446663856506348,3.0729825496673584,-0.14117653667926788
1772883302134882600,4.756882568359375,8.692526817321777,3.0029923915863037,-0.03768695518374443
1772883302151505200,4.773505126953125,8.7445707321167,3.046063184738159,0.048454657196998596
1772883302168091600,4.790091552734375,8.566903114318848,3.0867412090301514,0.054436713457107544
1772883302184682000,4.806681884765625,8.47896671295166,3.1866414546966553,0.046061836183071136
1772883302201301500,4.823301513671875,8.59322452545166,3.226123094558716,0.05024927482008934
1772883302217906700,4.83990673828125,8.777471542358398,3.3338000774383545,0.016749758273363113
1772883302234511600,4.85651171875,8.951549530029297,3.4743785858154297,0.0023928226437419653
1772883302251100200,4.87310009765625,9.09691333770752,3.685544967651367,0.12263216078281403
1772883302267704800,4.889704833984375,8.960522651672363,3.8458642959594727,0.24406790733337402
1772883302284304100,4.90630419921875,8.837890625,4.021138668060303,0.28953152894973755
1772883302300918500,4.92291845703125,9.087940216064453,4.022933006286621,0.40259242057800293
1772883302317510700,4.9395107421875,9.577272415161133,3.9559340476989746,0.48095735907554626
1772883302334136600,4.956136474609375,9.929018020629883,3.8913278579711914,0.6071787476539612
1772883302350729700,4.972729736328125,10.103693962097168,3.820141315460205,0.7782655358314514
1772883302367339300,4.98933935546875,10.427921295166016,3.848257064819336,0.6951149702072144
1772883302383961300,5.00596142578125,10.334002494812012,3.930809497833252,0.4713860750198364
1772883302400546600,5.022546630859375,9.775876998901367,4.040879249572754,0.29371899366378784
1772883302417151700,5.03915185546875,9.396016120910645,4.278367042541504,0.015553346835076809
1772883302433741800,5.055741943359375,9.056235313415527,4.321437835693359,0.1178465187549591
1772883302450378000,5.0723779296875,9.06401252746582,4.214957237243652,0.3038884699344635
1772883302466984200,5.088984130859375,9.190832138061523,3.992424488067627,0.7316055297851562
1772883302483588600,5.105588623046875,9.372686386108398,3.6227335929870605,1.1826525926589966
1772883302500193500,5.122193603515625,9.631111145019531,3.1692936420440674,1.3399807214736938
1772883302516782600,5.138782470703125,9.848857879638672,2.7146573066711426,1.0582258701324463
1772883302533387800,5.1553876953125,10.000802040100098,2.328216314315796,0.50907301902771
1772883302549992200,5.1719921875,10.092926025390625,2.1505494117736816,0.14416755735874176
1772883302566615000,5.188614990234375,9.897313117980957,2.1517457962036133,0.27397820353507996
1772883302583219200,5.20521923828125,9.732208251953125,2.335394859313965,0.44386860728263855
1772883302599824400,5.221824462890625,9.580862045288086,2.5292134284973145,0.5754738450050354
1772883302616421600,5.238421630859375,9.20159912109375,2.644068956375122,0.664606511592865
1772883302633034800,5.25503466796875,8.874381065368652,2.8109683990478516,0.8446664214134216
1772883302649640000,5.271639892578125,8.786444664001465,2.8773691654205322,0.8117650747299194
1772883302666245600,5.28824560546875,8.952746391296387,2.857030153274536,0.5910272002220154
1772883302682850000,5.30485009765625,9.308079719543457,2.7571299076080322,0.4205385744571686
1772883302699455000,5.321455078125,9.595218658447266,2.7553353309631348,0.45284169912338257
1772883302716046800,5.338046875,9.531808853149414,2.8725836277008057,0.6065805554389954
1772883302732649000,5.35464892578125,9.036494255065918,2.9449665546417236,0.48574298620224
1772883302749240800,5.37124072265625,8.46341323852539,3.0514471530914307,0.19800607860088348
1772883302765862100,5.387862060546875,7.919644832611084,3.0723843574523926,-0.17647066712379456
1772883302782467000,5.404467041015625,7.715656757354736,3.177070379257202,-0.4139583110809326
1772883302799072300,5.421072265625,7.823333740234375,3.2608189582824707,-0.5377869009971619
1772883302815664600,5.43766455078125,7.878966808319092,3.314059257507324,-0.5712863802909851
1772883302832288800,5.454288818359375,8.041080474853516,3.3918261528015137,-0.47617170214653015
1772883302848888000,5.47088818359375,8.170890808105469,3.4061830043792725,-0.3236292600631714
1772883302865496300,5.487496337890625,8.208578109741211,3.482753276824951,-0.251844584941864
1772883302882111700,5.50411181640625,8.407182693481445,3.59043025970459,-0.251844584941864
1772883302898716400,5.52071630859375,8.578866958618164,3.6299118995666504,-0.1950150430202484
1772883302915313400,5.5373134765625,8.692526817321777,3.7262229919433594,-0.16151553392410278
1772883302931926800,5.5539267578125,8.533403396606445,3.759124279022217,-0.23688943684101105
1772883302948531200,5.57053125,8.338987350463867,3.9146578311920166,-0.23030917346477509
1772883302965123300,5.587123291015625,8.410173416137695,3.9912281036376953,-0.11485548317432404
1772883302981742300,5.603742431640625,8.615358352661133,4.059423446655273,-0.02512463741004467
1772883302998347500,5.620347412109375,8.74756145477295,4.12343168258667,-0.058624155819416046
1772883303014936600,5.6369365234375,8.632107734680176,4.118646144866943,-0.18723836541175842
1772883303031558100,5.65355810546875,8.756534576416016,4.124628067016602,-0.19262222945690155
1772883303048157700,5.67015771484375,9.141778945922852,4.027120590209961,-0.047258246690034866
1772883303064774700,5.686774658203125,9.607781410217285,3.9876389503479004,0.13160525262355804
1772883303081373200,5.703373291015625,9.90568733215332,4.177868366241455,0.10229317098855972
1772883303097977900,5.719977783203125,9.951150894165039,4.359124660491943,0.24227328598499298
1772883303114591200,5.73659130859375,10.071390151977539,4.392025947570801,0.42831525206565857
1772883303131172400,5.75317236328125,10.272985458374023,4.591228485107422,0.33798620104789734
1772883303147789800,5.769789794921875,10.540982246398926,4.5475592613220215,0.22612173855304718
1772883303164403500,5.786403564453125,11.167303085327148,4.0935211181640625,0.33858439326286316
1772883303181003500,5.80300341796875,12.05803108215332,3.303889751434326,0.3756731450557709
1772883303197608700,5.819608642578125,12.778270721435547,2.510669231414795,0.6430711150169373
1772883303214199000,5.836198974609375,12.92782211303711,1.9471594095230103,0.6478567123413086
1772883303230802700,5.852802734375,12.477972030639648,1.581655740737915,0.28893333673477173
1772883303247407600,5.86940771484375,11.702098846435547,1.4662020206451416,-0.08554340898990631
1772883303264016100,5.88601611328125,10.691131591796875,1.485344648361206,-0.26141586899757385
1772883303280621000,5.90262109375,9.69631576538086,1.6671991348266602,-0.3978067636489868
1772883303297226000,5.91922607421875,8.806185722351074,1.9070796966552734,-0.44386860728263855
1772883303313818400,5.935818359375,8.276175498962402,2.0931215286254883,-0.49172505736351013
1772883303330436600,5.9524365234375,8.252246856689453,2.12542462348938,-0.3768695592880249
1772883303347041500,5.96904150390625,8.791230201721191,2.090130567550659,-0.040677983313798904
1772883303363651600,5.985651611328125,9.075976371765137,1.9968105554580688,0.05802594870328903
1772883303380265500,6.002265380859375,8.937790870666504,1.9196419715881348,-0.03768695518374443
1772883303396870700,6.01887060546875,8.760123252868652,1.9417755603790283,-0.06041877344250679
1772883303413483300,6.035483154296875,8.860024452209473,1.9621145725250244,-0.10408778488636017
1772883303430077000,6.052076904296875,8.913264274597168,1.933998942375183,-0.1094716340303421
1772883303446686700,6.068686767578125,8.743971824645996,2.008774518966675,-0.11724831163883209
1772883303463260000,6.085260009765625,8.349156379699707,2.124826431274414,-0.1908276081085205
1772883303479879700,6.101879638671875,7.890930652618408,2.2881367206573486,-0.28235307335853577
1772883303496501200,6.118501220703125,7.861020565032959,2.3359930515289307,-0.349352091550827
1772883303513089800,6.13508984375,7.934001445770264,2.499901533126831,-0.4055834412574768
1772883303529712000,6.151712158203125,7.87777042388916,2.746960401535034,-0.21714866161346436
1772883303546315000,6.16831494140625,7.80837869644165,2.968296527862549,0.07178468257188797
1772883303562924000,6.184924072265625,7.908278942108154,3.0311081409454346,0.16271193325519562
1772883303579510300,6.20151025390625,8.201997756958008,2.9617161750793457,0.2273181527853012
1772883303596132000,6.218132080078125,8.340781211853027,2.991626501083374,0.29850462079048157
1772883303612721700,6.2347216796875,8.531010627746582,3.088535785675049,0.42293140292167664
1772883303629342500,6.251342529296875,8.804390907287598,3.0765717029571533,0.49292147159576416
1772883303645947100,6.267947021484375,8.975478172302246,3.1310083866119385,0.4540380835533142
1772883303662552600,6.284552490234375,8.886344909667969,3.2512478828430176,0.2925225794315338
1772883303679140900,6.301140869140625,8.876773834228516,3.4295129776000977,0.0933200865983963
1772883303695763000,6.317762939453125,9.122636795043945,3.5718860626220703,0.03529413416981697
1772883303712351700,6.334351806640625,9.119047164916992,3.7531423568725586,0.05623133108019829
1772883303728956400,6.350956298828125,9.0514497756958,3.8937206268310547,0.3158525824546814
1772883303745564400,6.367564453125,9.09093189239502,3.943969964981079,0.7178468108177185
1772883303762169600,6.384169677734375,9.381659507751465,3.8913278579711914,1.0839486122131348
1772883303778774500,6.4007744140625,9.934401512145996,3.786641836166382,1.1563315391540527
1772883303795379500,6.41737939453125,10.313065528869629,3.968496322631836,1.0648061037063599
1772883303811972400,6.433972412109375,10.406984329223633,4.154538154602051,1.2855439186096191
1772883303828590000,6.450590087890625,10.523036003112793,4.092923164367676,1.332203984260559
1772883303845195300,6.4671953125,10.631311416625977,4.171288013458252,1.2556337118148804
1772883303861817600,6.483817626953125,10.614561080932617,4.004388809204102,1.1832507848739624
1772883303878402600,6.500402587890625,10.591231346130371,3.6329028606414795,0.9128618240356445
1772883303895051000,6.517051025390625,10.502696990966797,3.1561331748962402,0.6035895347595215
1772883303911613200,6.53361328125,10.451848983764648,2.7451658248901367,0.4618147611618042
1772883303928218600,6.550218505859375,10.432706832885742,2.458625316619873,0.37866419553756714
1772883303944836400,6.56683642578125,10.335199356079102,2.2713868618011475,0.28235307335853577
1772883303961448400,6.583448486328125,9.842277526855469,2.2337000370025635,0.14117653667926788
1772883303978033000,6.600032958984375,9.20698356628418,2.352742910385132,-0.040677983313798904
1772883303994655000,6.616655029296875,9.287740707397461,2.434098720550537,0.08374879509210587
1772883304011252000,6.633251953125,9.779465675354004,2.3461625576019287,0.39601215720176697
1772883304027865900,6.649865966796875,9.976874351501465,2.328216314315796,0.48574298620224
1772883304044470000,6.666469970703125,9.607182502746582,2.3772692680358887,0.4833501875400543
1772883304061076200,6.683076171875,9.029914855957031,2.53399920463562,0.41575294733047485
1772883304077700000,6.6997001953125,8.885149002075195,2.612962245941162,0.5126622319221497
1772883304094282800,6.71628271484375,9.06700325012207,2.6386852264404297,0.5647061467170715
1772883304110920200,6.732920166015625,9.233902931213379,2.6733810901641846,0.5832505226135254
1772883304127496700,6.74949658203125,9.205188751220703,2.6500511169433594,0.4827519655227661
1772883304144093700,6.76609375,8.952746391296387,2.7218358516693115,0.16450655460357666
1772883304169004000,6.791004150390625,8.70090103149414,2.723032236099243,-0.32243284583091736
1772883304185614000,6.807614013671875,8.294121742248535,2.9114668369293213,-0.4713860750198364
1772883304202219500,6.824219482421875,7.964509963989258,3.132802963256836,-0.5300102233886719
1772883304218806800,6.840806884765625,7.8041911125183105,3.2650065422058105,-0.4612165689468384
1772883304235416000,6.857416015625,7.736593723297119,3.3439695835113525,-0.29790642857551575
1772883304252021200,6.874021240234375,7.9758758544921875,3.370290756225586,-0.29431718587875366
1772883304268626000,6.8906259765625,8.3300142288208,3.3553354740142822,-0.3439682424068451
1772883304285230800,6.90723095703125,8.516056060791016,3.3302109241485596,-0.4695914387702942
1772883304301836500,6.92383642578125,8.506484031677246,3.325425386428833,-0.5126622319221497
1772883304318441500,6.94044140625,8.438288688659668,3.339782238006592,-0.5838487148284912
1772883304335046100,6.957046142578125,8.695517539978027,3.466003656387329,-0.4743770956993103
1772883304351668200,6.973668212890625,8.941978454589844,3.5647075176239014,-0.5467599630355835
1772883304368270800,6.990270751953125,9.058030128479004,3.682554006576538,-0.7238288521766663
1772883304384876000,7.0068759765625,8.913264274597168,3.6915271282196045,-0.8470591902732849
1772883304401480400,7.02348046875,8.748757362365723,3.809373617172241,-0.859621524810791
1772883304418086000,7.0400859375,9.025727272033691,3.8739798069000244,-0.7459624409675598
1772883304434690800,7.05669091796875,9.394820213317871,3.8811583518981934,-0.5665007829666138
1772883304451295700,7.073295654296875,9.799206733703613,3.8123645782470703,-0.4061816334724426
1772883304467901200,7.089901123046875,9.885947227478027,3.7561333179473877,-0.4743770956993103
1772883304484505900,7.106505859375,9.69930648803711,3.844667673110962,-0.9559326171875
1772883304501094700,7.1230947265625,9.127422332763672,3.9074792861938477,-1.205384373664856
1772883304517714400,7.13971435546875,9.06999397277832,3.8781673908233643,-1.2340983152389526
1772883304534324200,7.15632421875,9.56770133972168,3.981656789779663,-0.9684949517250061
1772883304550926600,7.172926513671875,9.837491989135742,3.954139471054077,-0.711864709854126
1772883304567532300,7.1895322265625,9.874580383300781,3.824328899383545,-0.5886343717575073
1772883304584137000,7.206136962890625,9.92961597442627,3.6771702766418457,-0.6711867451667786
1772883304600742700,7.22274267578125,10.417153358459473,3.250051259994507,-0.4618147611618042
1772883304617346600,7.2393466796875,11.0171537399292,2.746960401535034,-0.16271193325519562
1772883304633952800,7.255952880859375,11.775080680847168,2.2504496574401855,0.08733802288770676
1772883304650557400,7.272557373046875,12.059825897216797,1.852044701576233,0.054436713457107544
1772883304667162600,7.28916259765625,11.886346817016602,1.3441680669784546,-0.08255238085985184
1772883304683767600,7.305767578125,11.261221885681152,1.1629117727279663,-0.39601215720176697
1772883304700373500,7.32237353515625,9.998409271240234,1.3226326704025269,-0.5742774605751038
1772883304716960500,7.33896044921875,8.751749038696289,1.7252250909805298,-0.511465847492218
1772883304733569300,7.3555693359375,8.10688304901123,1.994417667388916,-0.3529413342475891
1772883304750174200,7.37217431640625,8.02074146270752,2.035095691680908,-0.20398813486099243
1772883304766779600,7.388779541015625,8.426922798156738,2.059023857116699,-0.20578274130821228
1772883304783384800,7.405384765625,8.94556713104248,1.9680966138839722,-0.16151553392410278
1772883304799990000,7.421989990234375,9.038289070129395,1.887937068939209,-0.19142581522464752
1772883304816594700,7.4385947265625,8.792427062988281,1.9196419715881348,-0.2949153780937195
1772883304833200000,7.4552001953125,8.671588897705078,1.9250258207321167,-0.48574298620224
1772883304849805800,7.471805908203125,8.916254997253418,1.8939191102981567,-0.4540380835533142
1772883304866420200,7.488420166015625,9.256634712219238,1.9621145725250244,-0.18305093050003052
1772883304883032600,7.505032470703125,9.294919967651367,2.0093727111816406,-0.06340979784727097
1772883304899618800,7.521618896484375,8.83250617980957,2.101496458053589,-0.24646073579788208
1772883304916239600,7.538239501953125,8.469993591308594,2.228914260864258,-0.47258245944976807
1772883304932844000,7.554843994140625,8.344968795776367,2.266003131866455,-0.4624129831790924
1772883304949449000,7.571448974609375,8.299505233764648,2.4406790733337402,-0.259621262550354
1772883304966055400,7.588055419921875,8.300103187561035,2.5663022994995117,0.20039889216423035
1772883304982659600,7.60465966796875,8.445467948913574,2.612962245941162,0.5491527915000916
1772883304999265300,7.621265380859375,8.632705688476562,2.5902304649353027,0.5958128571510315
1772883305015870200,7.6378701171875,8.751749038696289,2.5405795574188232,0.3888336718082428
1772883305032475400,7.654475341796875,8.8707914352417,2.5292134284973145,0.20159530639648438
1772883305049080000,7.671080078125,8.893523216247559,2.5770699977874756,0.20159530639648438
1772883305065686000,7.68768603515625,8.86062240600586,2.8396823406219482,0.28534409403800964
1772883305082290000,7.7042900390625,8.885149002075195,3.0687949657440186,0.38225340843200684
1772883305098896100,7.720896240234375,9.107681274414062,3.2656047344207764,0.5832505226135254
1772883305115501300,7.737501220703125,9.538389205932617,3.3026933670043945,0.7106683254241943
1772883305132105700,7.754105712890625,10.01874828338623,3.2213375568389893,0.745364248752594
1772883305148708000,7.7707080078125,10.38485050201416,3.105883836746216,0.7328019142150879
1772883305165316400,7.78731640625,10.712068557739258,2.994617462158203,0.7399803996086121
1772883305181921800,7.803921875,11.109277725219727,2.9898319244384766,0.6945167779922485
1772883305198509000,7.820509033203125,11.302497863769531,3.098107099533081,0.5892325639724731
1772883305215117600,7.83711767578125,10.990234375,3.3308091163635254,0.32961133122444153
1772883305231723300,7.85372314453125,10.377073287963867,3.518047571182251,0.0568295381963253
1772883305248328000,7.870327880859375,9.869196891784668,3.762713670730591,-0.129810631275177
1772883305264933000,7.88693310546875,9.496515274047852,3.8285162448883057,0.1501496136188507
1772883305281538000,7.9035380859375,10.067801475524902,3.6059837341308594,0.5760720372200012
1772883305298143700,7.920143798828125,11.139187812805176,2.937189817428589,0.7082754969596863
1772883305314748400,7.93674853515625,11.340185165405273,2.352144718170166,0.5401797294616699
1772883305331353600,7.953353515625,10.649855613708496,2.083550214767456,0.26919254660606384
1772883305347975200,7.96997509765625,9.987641334533691,1.9094724655151367,0.1860419660806656
1772883305364578300,7.986578369140625,9.723833084106445,1.9262222051620483,0.12502498924732208
1772883305381182500,8.003182373046876,9.866206169128418,1.9286150932312012,0.02871387079358101
1772883305397788000,8.019787841796875,10.165308952331543,1.7940187454223633,-0.031106693670153618
1772883305414393000,8.03639306640625,10.307083129882812,1.674377679824829,0.09152546525001526
1772883305430998000,8.052998046875,9.964311599731445,1.7156537771224976,0.4713860750198364
1772883305447602700,8.069602783203125,9.272786140441895,1.9405791759490967,0.7591229677200317
1772883305464187600,8.086187744140625,8.770891189575195,2.2444677352905273,0.9601200819015503
1772883305480799000,8.102799072265626,8.567501068115234,2.403590440750122,1.1156535148620605
1772883305497399800,8.11939990234375,8.8438720703125,2.4783661365509033,1.1437692642211914
1772883305514012200,8.13601220703125,9.193822860717773,2.4532413482666016,1.1461620330810547
1772883305530628400,8.15262841796875,9.17467975616455,2.462214469909668,1.1940184831619263
1772883305547233300,8.1692333984375,8.97368335723877,2.6907291412353516,1.1012966632843018
1772883305563839500,8.185839599609375,8.605188369750977,2.80977201461792,0.6927221417427063
1772883305580444000,8.20244384765625,8.105687141418457,2.98085880279541,0.14715859293937683
1772883305597049300,8.21904931640625,7.69830846786499,3.1651060581207275,-0.12681959569454193
1772883305613654500,8.235654541015625,7.767700672149658,3.3092737197875977,-0.11665010452270508
1772883305630259500,8.252259521484374,7.9830546379089355,3.386442184448242,0.11246266216039658
1772883305646864100,8.268864013671875,8.283951759338379,3.432504177093506,0.18305093050003052
1772883305663470300,8.28547021484375,8.763114929199219,3.4085757732391357,0.18963119387626648
1772883305680074200,8.30207421875,8.97368335723877,3.3966116905212402,0.18364913761615753
1772883305696663000,8.3186630859375,8.986844062805176,3.40797758102417,0.006580262444913387
1772883305713271600,8.335271484375,8.766105651855469,3.4061830043792725,-0.08793623000383377
1772883305729876500,8.35187646484375,8.437092781066895,3.5617165565490723,-0.20937198400497437
1772883305746481200,8.368481201171875,8.386244773864746,3.728017568588257,-0.11186445504426956
1772883305763086800,8.3850869140625,8.551948547363281,3.8392839431762695,-0.08853443711996078
1772883305779691800,8.40169189453125,8.793622970581055,3.9565322399139404,-0.08374879509210587
1772883305796296700,8.418296630859375,8.682356834411621,4.036691665649414,-0.08255238085985184
1772883305812902000,8.43490185546875,8.396414756774902,4.201796531677246,-0.15672987699508667
1772883305829511000,8.451510986328126,8.751151084899902,4.209573268890381,-0.048454657196998596
1772883305846126000,8.4681259765625,9.247661590576172,4.1078782081604,0.19680966436862946
1772883305862731000,8.48473095703125,9.794421195983887,4.078566074371338,0.355932354927063
1772883305879336400,8.50133642578125,10.179665565490723,4.174877166748047,0.23030917346477509
1772883305895941400,8.51794140625,10.063015937805176,4.382454872131348,-0.1501496136188507
1772883305912546800,8.534546875,9.881759643554688,4.2723846435546875,-0.4133601188659668
1772883305929151700,8.55115185546875,10.223933219909668,4.2693939208984375,-0.7166503667831421
1772883305945756400,8.56775634765625,10.296316146850586,4.273581027984619,-0.6017948985099792
1772883305962361900,8.58436181640625,9.89551830291748,4.2825541496276855,-0.4085744619369507
1772883305978967300,8.60096728515625,9.781859397888184,4.2987060546875,-0.17766708135604858
1772883305995571700,8.61757177734375,10.385448455810547,3.8434712886810303,0.05922235921025276
1772883306012177200,8.63417724609375,11.166705131530762,3.122633457183838,0.34576287865638733
1772883306028783000,8.650783203125,11.685349464416504,2.5058834552764893,0.3529413342475891
1772883306045387300,8.66738720703125,11.612966537475586,2.022533416748047,0.268594354391098
1772883306061992200,8.6839921875,10.996814727783203,1.8646070957183838,0.012562318705022335
1772883306078597600,8.70059765625,9.873384475708008,1.97407865524292,-0.2386840581893921
1772883306095202600,8.71720263671875,8.802596092224121,2.1032910346984863,-0.45643091201782227
1772883306111808300,8.733808349609374,8.535796165466309,2.324028968811035,-0.3242274820804596
1772883306128413400,8.750413330078125,8.73918628692627,2.2719850540161133,-0.1585244983434677
1772883306144999700,8.766999755859375,8.857032775878906,2.345564365386963,-0.1537388563156128
1772883306161631200,8.78363134765625,8.873184204101562,2.554936408996582,-0.028115665540099144
1772883306178211600,8.800211669921875,8.445467948913574,2.71645188331604,0.14775680005550385
1772883306194819600,8.816819580078125,7.9627156257629395,2.9832515716552734,0.23389841616153717
1772883306211422200,8.833422119140625,7.850851058959961,3.091526746749878,0.2829512655735016
1772883306228030500,8.850030517578125,8.313263893127441,2.933600664138794,0.3415754437446594
1772883306244630500,8.866630615234374,8.848658561706543,2.7284159660339355,0.39421752095222473
1772883306261244400,8.883244384765625,9.377471923828125,2.6799614429473877,0.6209374666213989
1772883306277845000,8.899844970703125,9.386445045471191,2.6949164867401123,0.5539384484291077
1772883306294450700,8.91645068359375,8.631509780883789,2.878565549850464,0.4731806814670563
1772883306311055600,8.9330556640625,8.084749221801758,3.0855448246002197,0.1908276081085205
1772883306327661600,8.94966162109375,8.271389961242676,3.0831520557403564,0.1423729509115219
1772883306344280600,8.966280517578125,8.670392990112305,2.9964120388031006,0.1824527233839035
1772883306360885000,8.982885009765624,8.815756797790527,2.9114668369293213,0.23330020904541016
1772883306377490000,8.999489990234375,8.685946464538574,2.994617462158203,0.37806597352027893
1772883306394094800,9.0160947265625,8.505288124084473,3.2446675300598145,0.5772684812545776
1772883306410683600,9.03268359375,8.527421951293945,3.3690943717956543,0.6209374666213989
1772883306427305000,9.049304931640625,8.461020469665527,3.527618885040283,0.45523449778556824
1772883306443909000,9.0659091796875,8.376673698425293,3.6047873497009277,0.24586252868175507
1772883306460508700,9.0825087890625,8.489734649658203,3.7160534858703613,0.2745763957500458
1772883306477120500,9.09912060546875,8.505288124084473,3.940380573272705,0.36729827523231506
1772883306493709000,9.115708984375,8.526225090026855,4.131208419799805,0.4977070987224579
1772883306510330600,9.13233056640625,8.635098457336426,4.23649263381958,0.6125625967979431
1772883306526935800,9.148935791015624,8.756534576416016,4.405186653137207,0.6083751320838928
1772883306543524000,9.165524169921875,8.980263710021973,4.418346881866455,0.5162515044212341
1772883306560146400,9.182146484375,9.211769104003906,4.362115859985352,0.638883650302887
1772883306576751000,9.198751220703125,9.55633544921875,4.196412563323975,0.8841479420661926
1772883306593356000,9.21535595703125,9.65803050994873,4.195814609527588,1.074975609779358
1772883306609961000,9.2319609375,9.739386558532715,4.323830604553223,0.7214360237121582
1772883306626566700,9.248566650390625,9.516255378723145,4.607379913330078,0.3038884699344635
1772883306643155000,9.265155029296874,9.33559799194336,4.787439823150635,0.3206382393836975
1772883306659776800,9.28177685546875,9.694520950317383,5.0356950759887695,0.27756741642951965
1772883306676364300,9.2983642578125,9.708279609680176,5.064409255981445,0.30628129839897156
1772883306692973300,9.314973388671875,9.678369522094727,4.731208801269531,0.6245267391204834
1772883306709578500,9.33157861328125,10.326824188232422,4.171886444091797,0.8129615187644958
1772883306726183400,9.348183349609375,11.281560897827148,3.301496982574463,0.8584251403808594
1772883306742788400,9.364788330078126,11.764312744140625,2.706282377243042,0.511465847492218
1772883306759394000,9.38139404296875,11.501700401306152,2.32761812210083,0.22851456701755524
1772883306775998700,9.397998779296875,10.849656105041504,2.1481566429138184,0.2883351147174835
1772883306792604200,9.414604248046874,10.256834030151367,2.3718855381011963,0.22133609652519226
1772883306809208800,9.431208740234375,9.891928672790527,2.355135679244995,0.0077766734175384045
1772883306825831400,9.44783154296875,9.281160354614258,2.4221346378326416,-0.21296121180057526
1772883306842432800,9.464432861328126,8.69910717010498,2.6907291412353516,0.0891326442360878
1772883306859038200,9.4810380859375,8.842676162719727,2.86061954498291,0.6107679605484009
1772883306875643100,9.49764306640625,9.156734466552734,2.794816732406616,0.8428717851638794
1772883306892248800,9.514248779296874,8.0291166305542,3.059821844100952,0.3535395562648773
1772883306908853500,9.530853515625,7.579265594482422,3.3176486492156982,0.36311084032058716
1772883306925452500,9.54745263671875,7.472784996032715,3.448655605316162,0.6418746709823608
1772883306942046700,9.564046630859375,7.555935859680176,3.4612178802490234,0.9379864931106567
1772883306958669300,9.58066943359375,7.971090316772461,3.5371899604797363,0.9505487680435181
1772883306975274000,9.59727392578125,8.00100040435791,3.4474592208862305,0.8925228714942932
